2q (degree),Normalized Intensity (a.u)
12.6904,0
12.6954,0.05338
12.7004,0.05983
12.7054,0.03523
12.7104,0.01272
12.7154,0.01433
12.7204,0
12.7254,0.00815
12.7304,0.00922
12.7354,0.02511
12.7404,0.0176
12.7454,0.02726
12.7504,0.02681
12.7554,0.03165
12.7604,0.0232
12.7654,0.0433
12.7704,0.04056
12.7754,0.04179
12.7804,0
12.7854,0.01291
12.7904,0.00953
12.7954,0.01188
12.8004,0.00522
12.8054,0.0164
12.8104,0.00994
12.8154,0
12.8204,0.00259
12.8254,0.04635
12.8304,0.0417
12.8354,0.03871
12.8404,0.04429
12.8454,0.05211
12.8504,0.05526
12.8554,0.05659
12.8604,0.05903
12.8654,0.04935
12.8704,0.04642
12.8754,0.04577
12.8804,0.03466
12.8854,0.03405
12.8904,0.03225
12.8954,0.029
12.9004,0.0298
12.9054,0.03888
12.9104,0.04097
12.9154,0.04492
12.9204,0.04579
12.9254,0.05825
12.9304,0.05348
12.9354,0.0517
12.9404,0.05406
12.9454,0.05518
12.9504,0.05062
12.9554,0.06245
12.9604,0.07136
12.9654,0.07096
12.9704,0.06735
12.9754,0.06425
12.9804,0.04253
12.9854,0.04376
12.9904,0.04264
12.9954,0.03795
13.0004,0.03344
13.0054,0.02561
13.0104,0.02378
13.0154,0.02994
13.0204,0.0364
13.0254,0.06188
13.0304,0.05999
13.0354,0.06026
13.0404,0.0577
13.0454,0.05074
13.0504,0.04511
13.0554,0.04655
13.0604,0.04313
13.0654,0.04008
13.0704,0.03554
13.0754,0.03098
13.0804,0.01858
13.0854,0.02091
13.0904,0.02213
13.0954,0.02712
13.1004,0.02769
13.1054,0.03159
13.1104,0.03161
13.1154,0.03176
13.1204,0.03773
13.1254,0.04883
13.1304,0.04532
13.1354,0.04319
13.1404,0.0382
13.1454,0.03748
13.1504,0.0307
13.1554,0.02613
13.1604,0.02284
13.1654,0.0177
13.1704,0.01924
13.1754,0.01906
13.1804,0.00694
13.1854,0.00922
13.1904,0.00648
13.1954,0.00909
13.2004,0.01151
13.2054,0.01246
13.2104,0.01268
13.2154,0.0119
13.2204,0.0174
13.2254,0.03174
13.2304,0.03547
13.2354,0.03799
13.2404,0.04
13.2454,0.04667
13.2504,0.04589
13.2554,0.04975
13.2604,0.05045
13.2654,0.04684
13.2704,0.04949
13.2754,0.04365
13.2804,0.03787
13.2854,0.03444
13.2904,0.03374
13.2954,0.03834
13.3004,0.03437
13.3054,0.02748
13.3104,0.02325
13.3154,0.02052
13.3204,0.02448
13.3254,0.03111
13.3304,0.02961
13.3354,0.02423
13.3404,0.02558
13.3454,0.02748
13.3504,0.03055
13.3554,0.03373
13.3604,0.03117
13.3654,0.02587
13.3704,0.02695
13.3754,0.02715
13.3804,0.01806
13.3854,0.01476
13.3904,0.0161
13.3954,0.02439
13.4004,0.02844
13.4054,0.02515
13.4104,0.02064
13.4154,0.01592
13.4204,0.01657
13.4254,0.02601
13.4304,0.02657
13.4354,0.02348
13.4404,0.01576
13.4454,0.01271
13.4504,0.01842
13.4554,0.02482
13.4604,0.02559
13.4654,0.02498
13.4704,0.02772
13.4754,0.0268
13.4804,0.02143
13.4854,0.02338
13.4904,0.02288
13.4954,0.02191
13.5004,0.02281
13.5054,0.0222
13.5104,0.01881
13.5154,0.01668
13.5204,0.01683
13.5254,0.02245
13.5304,0.02422
13.5354,0.02718
13.5404,0.03
13.5454,0.02927
13.5504,0.02842
13.5554,0.03342
13.5604,0.02947
13.5654,0.02567
13.5704,0.02329
13.5754,0.02047
13.5804,0.0137
13.5854,0.01438
13.5904,0.01583
13.5954,0.02105
13.6004,0.01829
13.6054,0.01444
13.6104,0.01217
13.6154,0.01494
13.6204,0.01845
13.6254,0.02474
13.6304,0.0204
13.6354,0.02041
13.6404,0.01855
13.6454,0.02071
13.6504,0.02585
13.6554,0.02929
13.6604,0.031
13.6654,0.02845
13.6704,0.0274
13.6754,0.02726
13.6804,0.02162
13.6854,0.0194
13.6904,0.01849
13.6954,0.02141
13.7004,0.0227
13.7054,0.01629
13.7104,0.01215
13.7154,0.01123
13.7204,0.01171
13.7254,0.01763
13.7304,0.02232
13.7354,0.02099
13.7404,0.01986
13.7454,0.02072
13.7504,0.02561
13.7554,0.03109
13.7604,0.03062
13.7654,0.02787
13.7704,0.02471
13.7754,0.02459
13.7804,0.02541
13.7854,0.02474
13.7904,0.0231
13.7954,0.0217
13.8004,0.01929
13.8054,0.01355
13.8104,0.0153
13.8154,0.01717
13.8204,0.01544
13.8254,0.01502
13.8304,0.01294
13.8354,0.01392
13.8404,0.01491
13.8454,0.01538
13.8504,0.0206
13.8554,0.02147
13.8604,0.01813
13.8654,0.01744
13.8704,0.0195
13.8754,0.02162
13.8804,0.0191
13.8854,0.01967
13.8904,0.01814
13.8954,0.02029
13.9004,0.02101
13.9054,0.02033
13.9104,0.01811
13.9154,0.01731
13.9204,0.01618
13.9254,0.02101
13.9304,0.02034
13.9354,0.02017
13.9404,0.01738
13.9454,0.01827
13.9504,0.0211
13.9554,0.02099
13.9604,0.02002
13.9654,0.02222
13.9704,0.02032
13.9754,0.01761
13.9804,0.01628
13.9854,0.01571
13.9904,0.01196
13.9954,0.01188
14.0004,0.01307
14.0054,0.00935
14.0104,0.00412
14.0154,0.0025
14.0204,0.00429
14.0254,0.0083
14.0304,0.01284
14.0354,0.01332
14.0404,0.01149
14.0454,0.01276
14.0504,0.01557
14.0554,0.02066
14.0604,0.02274
14.0654,0.01972
14.0704,0.01924
14.0754,0.0144
14.0804,0.00867
14.0854,0.00818
14.0904,0.00503
14.0954,0.00931
14.1004,0.005
14.1054,0.00151
14.1104,0.00309
14.1154,0.00332
14.1204,0.00541
14.1254,0.01336
14.1304,0.01464
14.1354,0.01515
14.1404,0.01143
14.1454,0.01337
14.1504,0.01678
14.1554,0.01829
14.1604,0.01724
14.1654,0.0146
14.1704,0.01272
14.1754,0.01682
14.1804,0.0178
14.1854,0.01765
14.1904,0.01596
14.1954,0.0136
14.2004,0.01501
14.2054,0.01459
14.2104,0.01084
14.2154,0.0106
14.2204,0.0065
14.2254,0.0019
14.2304,0.00137
14.2354,0.00437
14.2404,0.0066
14.2454,0.00473
14.2504,0.00421
14.2554,0.00966
14.2604,0.01133
14.2654,0.01156
14.2704,0.01784
14.2754,0.01777
14.2804,0.01271
14.2854,0.01426
14.2904,0.01561
14.2954,0.01673
14.3004,0.0178
14.3054,0.01363
14.3104,0.01094
14.3154,0.01059
14.3204,0.01215
14.3254,0.01594
14.3304,0.014
14.3354,0.01124
14.3404,0.00832
14.3454,0.00591
14.3504,0.01178
14.3554,0.01409
14.3604,0.0121
14.3654,0.00853
14.3704,0.00736
14.3754,0.00539
14.3804,0.00721
14.3854,0.01056
14.3904,0.01153
14.3954,0.00978
14.4004,0.01068
14.4054,0.00821
14.4104,0.00735
14.4154,0.00869
14.4204,0.01308
14.4254,0.01245
14.4304,0.01078
14.4354,0.01049
14.4404,0.01108
14.4454,0.01377
14.4504,0.01674
14.4554,0.02121
14.4604,0.01886
14.4654,0.0149
14.4704,0.0147
14.4754,0.01699
14.4804,0.01667
14.4854,0.01659
14.4904,0.01434
14.4954,0.01342
14.5004,0.01173
14.5054,0.011
14.5104,0.01295
14.5154,0.01206
14.5204,0.00977
14.5254,0.0084
14.5304,0.00519
14.5354,0.00533
14.5404,0.00607
14.5454,0.00562
14.5504,0.00812
14.5554,0.00893
14.5604,0.01048
14.5654,0.01116
14.5704,0.01298
14.5754,0.01327
14.5804,0.0101
14.5854,0.00977
14.5904,0.01266
14.5954,0.01374
14.6004,0.01208
14.6054,0.01058
14.6104,0.00995
14.6154,0.01148
14.6204,0.01313
14.6254,0.01876
14.6304,0.02009
14.6354,0.01693
14.6404,0.01451
14.6454,0.01295
14.6504,0.01071
14.6554,0.01035
14.6604,0.0075
14.6654,0.00568
14.6704,0.00382
14.6754,0.00281
14.6804,0.00157
14.6854,0.00369
14.6904,0.00427
14.6954,0.009
14.7004,0.01017
14.7054,0.00862
14.7104,0.00822
14.7154,0.00641
14.7204,0.00615
14.7254,0.00784
14.7304,0.00888
14.7354,0.00892
14.7404,0.00597
14.7454,0.00502
14.7504,0.01024
14.7554,0.01238
14.7604,0.01066
14.7654,0.01084
14.7704,0.0117
14.7754,0.01015
14.7804,0.00934
14.7854,0.01098
14.7904,0.01338
14.7954,0.01179
14.8004,0.01377
14.8054,0.01742
14.8104,0.01509
14.8154,0.01379
14.8204,0.01427
14.8254,0.01482
14.8304,0.01313
14.8354,0.01086
14.8404,0.01103
14.8454,0.01
14.8504,0.00986
14.8554,0.01522
14.8604,0.01751
14.8654,0.0167
14.8704,0.01692
14.8754,0.01892
14.8804,0.01724
14.8854,0.01561
14.8904,0.01545
14.8954,0.01567
14.9004,0.01538
14.9054,0.0133
14.9104,0.01327
14.9154,0.01578
14.9204,0.01647
14.9254,0.02049
14.9304,0.02143
14.9354,0.02042
14.9404,0.01939
14.9454,0.01973
14.9504,0.02058
14.9554,0.02053
14.9604,0.01577
14.9654,0.01282
14.9704,0.00919
14.9754,0.00709
14.9804,0.004
14.9854,0.00423
14.9904,5.60E-04
14.9954,0
15.0004,0.00203
15.0054,0.00379
15.0104,0.00415
15.0154,0.00591
15.0204,0.00652
15.0254,0.00889
15.0304,0.00714
15.0354,0.00664
15.0404,0.00644
15.0454,0.0052
15.0504,0.00636
15.0554,0.00845
15.0604,0.00632
15.0654,0.00595
15.0704,0.00772
15.0754,0.00947
15.0804,0.01108
15.0854,0.01296
15.0904,0.01182
15.0954,0.01047
15.1004,0.00969
15.1054,0.01139
15.1104,0.00995
15.1154,0.00996
15.1204,0.01025
15.1254,0.01055
15.1304,0.01109
15.1354,0.01224
15.1404,0.01153
15.1454,0.00985
15.1504,0.00766
15.1554,0.01001
15.1604,0.0075
15.1654,0.00466
15.1704,0.00451
15.1754,0.00288
15.1804,0
15.1854,0.00288
15.1904,0.00388
15.1954,0.00535
15.2004,0.00652
15.2054,0.00809
15.2104,0.0082
15.2154,0.00743
15.2204,0.00772
15.2254,0.00862
15.2304,0.00726
15.2354,0.00948
15.2404,0.01006
15.2454,0.00888
15.2504,0.00939
15.2554,0.01161
15.2604,0.01127
15.2654,0.01043
15.2704,0.01295
15.2754,0.01509
15.2804,0.01408
15.2854,0.01439
15.2904,0.01467
15.2954,0.01314
15.3004,0.01178
15.3054,0.01131
15.3104,0.01066
15.3154,0.00901
15.3204,0.00587
15.3254,0.00412
15.3304,0.00358
15.3354,0.00303
15.3404,0.00525
15.3454,0.00976
15.3504,0.01312
15.3554,0.01593
15.3604,0.01484
15.3654,0.01661
15.3704,0.01758
15.3754,0.01733
15.3804,0.01734
15.3854,0.01738
15.3904,0.0138
15.3954,0.01233
15.4004,0.01077
15.4054,0.00957
15.4104,0.00725
15.4154,0.00888
15.4204,0.0071
15.4254,0.00679
15.4304,0.0065
15.4354,0.00643
15.4404,0.00634
15.4454,0.00548
15.4504,0.00754
15.4554,0.00835
15.4604,0.00572
15.4654,0.00716
15.4704,0.0077
15.4754,0.00701
15.4804,0.00706
15.4854,0.00668
15.4904,0.00874
15.4954,0.00984
15.5004,0.01081
15.5054,0.00971
15.5104,0.00973
15.5154,0.01068
15.5204,0.01153
15.5254,0.00883
15.5304,0.00863
15.5354,0.00726
15.5404,0.006
15.5454,0.00536
15.5504,0.00729
15.5554,0.00837
15.5604,0.00574
15.5654,0.00256
15.5704,0.0066
15.5754,0.00849
15.5804,0.00597
15.5854,0.00635
15.5904,0.00819
15.5954,0.00842
15.6004,0.00692
15.6054,0.00836
15.6104,0.009
15.6154,0.00855
15.6204,0.00554
15.6254,0.00762
15.6304,0.00802
15.6354,0.00641
15.6404,0.00693
15.6454,0.00771
15.6504,0.00789
15.6554,0.0122
15.6604,0.01005
15.6654,0.01046
15.6704,0.01065
15.6754,0.01023
15.6804,0.01001
15.6854,0.00789
15.6904,0.00854
15.6954,0.00936
15.7004,0.00658
15.7054,0.00771
15.7104,0.00643
15.7154,0.00486
15.7204,0.00396
15.7254,0.00428
15.7304,0.00715
15.7354,0.0074
15.7404,0.00738
15.7454,0.00617
15.7504,0.00735
15.7554,0.00913
15.7604,0.00915
15.7654,0.0095
15.7704,0.01101
15.7754,0.01087
15.7804,0.00933
15.7854,0.00935
15.7904,0.01073
15.7954,0.01067
15.8004,0.01091
15.8054,0.01198
15.8104,0.01055
15.8154,0.0079
15.8204,0.00816
15.8254,0.01
15.8304,0.00897
15.8354,0.00885
15.8404,0.00662
15.8454,0.00628
15.8504,0.00689
15.8554,0.00755
15.8604,0.00763
15.8654,0.00567
15.8704,0.00635
15.8754,0.01015
15.8804,0.00853
15.8854,0.01017
15.8904,0.01087
15.8954,0.01232
15.9004,0.01495
15.9054,0.01629
15.9104,0.01626
15.9154,0.0151
15.9204,0.01316
15.9254,0.01559
15.9304,0.01611
15.9354,0.01353
15.9404,0.01242
15.9454,0.01245
15.9504,0.01443
15.9554,0.01697
15.9604,0.01664
15.9654,0.01455
15.9704,0.01367
15.9754,0.01274
15.9804,0.01133
15.9854,0.01195
15.9904,0.01126
15.9954,0.01016
16.0004,0.0085
16.0054,0.00689
16.0104,0.00664
16.0154,0.00699
16.0204,0.0088
16.0254,0.01144
16.0304,0.00936
16.0354,0.00889
16.0404,0.00799
16.0454,0.00746
16.0504,0.00806
16.0554,0.00919
16.0604,0.00747
16.0654,0.00494
16.0704,0.0048
16.0754,0.00565
16.0804,0.00566
16.0854,0.00648
16.0904,0.00845
16.0954,0.00969
16.1004,0.0092
16.1054,0.00933
16.1104,0.00807
16.1154,0.01004
16.1204,0.00953
16.1254,0.00804
16.1304,0.00535
16.1354,0.0024
16.1404,0
16.1454,2.93E-04
16.1504,0.00251
16.1554,0.00666
16.1604,0.00436
16.1654,0.00456
16.1704,0.0059
16.1754,0.00867
16.1804,0.0107
16.1854,0.01186
16.1904,0.01117
16.1954,0.00885
16.2004,0.00563
16.2054,0.00535
16.2104,0.00483
16.2154,0.00458
16.2204,0.00284
16.2254,0.0022
16.2304,0.00271
16.2354,0.00459
16.2404,0.00648
16.2454,0.0077
16.2504,0.01131
16.2554,0.01242
16.2604,0.01043
16.2654,0.00976
16.2704,0.01016
16.2754,0.01195
16.2804,0.01129
16.2854,0.01186
16.2904,0.01182
16.2954,0.00974
16.3004,0.0087
16.3054,0.01133
16.3104,0.01146
16.3154,0.01087
16.3204,0.00864
16.3254,0.00865
16.3304,0.00606
16.3354,0.00437
16.3404,0.0037
16.3454,0.00341
16.3504,0.00211
16.3554,0.00256
16.3604,0.00252
16.3654,0.00216
16.3704,0.00199
16.3754,0.00366
16.3804,0.00587
16.3854,0.0067
16.3904,0.00776
16.3954,0.00943
16.4004,0.01094
16.4054,0.01021
16.4104,0.01277
16.4154,0.01296
16.4204,0.01155
16.4254,0.00969
16.4304,0.00776
16.4354,0.00624
16.4404,0.00432
16.4454,0.00371
16.4504,0.00474
16.4554,0.00396
16.4604,0.00235
16.4654,0.00399
16.4704,0.00627
16.4754,0.00831
16.4804,0.00869
16.4854,0.01036
16.4904,0.01027
16.4954,0.0098
16.5004,0.00996
16.5054,0.01229
16.5104,0.01156
16.5154,0.00968
16.5204,0.00759
16.5254,0.00729
16.5304,0.00448
16.5354,0.00444
16.5404,0.00477
16.5454,0.00506
16.5504,0.00381
16.5554,0.00428
16.5604,0.00519
16.5654,0.00469
16.5704,0.00637
16.5754,0.0084
16.5804,0.00657
16.5854,0.00587
16.5904,0.00448
16.5954,0.0055
16.6004,0.00541
16.6054,0.00465
16.6104,0.00461
16.6154,0.00526
16.6204,0.00677
16.6254,0.00829
16.6304,0.00677
16.6354,0.00621
16.6404,0.00537
16.6454,0.00681
16.6504,0.00677
16.6554,0.00802
16.6604,0.00499
16.6654,0.00214
16.6704,0.00295
16.6754,0.00457
16.6804,0.00589
16.6854,0.00588
16.6904,0.00279
16.6954,0.002
16.7004,0.00195
16.7054,0.00399
16.7104,0.00493
16.7154,0.00386
16.7204,0.00278
16.7254,0.00237
16.7304,0.00123
16.7354,0.00181
16.7404,0.00378
16.7454,0.00605
16.7504,0.0072
16.7554,0.0066
16.7604,0.00745
16.7654,0.00826
16.7704,0.0088
16.7754,0.00779
16.7804,0.00755
16.7854,0.00797
16.7904,0.00794
16.7954,0.00592
16.8004,0.00704
16.8054,0.00669
16.8104,0.00633
16.8154,0.00443
16.8204,0.00579
16.8254,0.00767
16.8304,0.00672
16.8354,0.00332
16.8404,0.00323
16.8454,0.00377
16.8504,0.00228
16.8554,0.00227
16.8604,0.00177
16.8654,0.00192
16.8704,9.87E-04
16.8754,8.49E-04
16.8804,0.00419
16.8854,0.00622
16.8904,0.00351
16.8954,0.00436
16.9004,0.00601
16.9054,0.00705
16.9104,0.00724
16.9154,0.00806
16.9204,0.00634
16.9254,0.00584
16.9304,0.00538
16.9354,0.00648
16.9404,0.00829
16.9454,0.00868
16.9504,0.01009
16.9554,0.00901
16.9604,0.00578
16.9654,0.00521
16.9704,0.00264
16.9754,0.00148
16.9804,0.00163
16.9854,0.00113
16.9904,1.87E-04
16.9954,0
17.0004,0.00247
17.0054,0.00452
17.0104,0.00535
17.0154,0.007
17.0204,0.00698
17.0254,0.00732
17.0304,0.00799
17.0354,0.01026
17.0404,0.01136
17.0454,0.01126
17.0504,0.01146
17.0554,0.01375
17.0604,0.01168
17.0654,0.01046
17.0704,0.01148
17.0754,0.00945
17.0804,0.00784
17.0854,0.00628
17.0904,0.0071
17.0954,0.00722
17.1004,0.0072
17.1054,0.0095
17.1104,0.01085
17.1154,0.00945
17.1204,0.00919
17.1254,0.00935
17.1304,0.00885
17.1354,0.00509
17.1404,0.005
17.1454,0.00546
17.1504,0.00655
17.1554,0.00834
17.1604,0.00747
17.1654,0.00637
17.1704,0.00726
17.1754,0.0086
17.1804,0.01069
17.1854,0.01158
17.1904,0.01024
17.1954,0.00729
17.2004,0.00661
17.2054,0.00969
17.2104,0.01065
17.2154,0.00829
17.2204,0.00704
17.2254,0.00665
17.2304,0.00578
17.2354,0.0046
17.2404,0.00687
17.2454,0.00663
17.2504,0.00433
17.2554,0.00578
17.2604,0.00397
17.2654,0.00282
17.2704,0.00358
17.2754,0.00372
17.2804,0.00258
17.2854,0.00223
17.2904,0.00132
17.2954,0.00202
17.3004,5.31E-04
17.3054,0.00268
17.3104,0.00485
17.3154,0.00353
17.3204,0.00213
17.3254,0.00446
17.3304,0.00403
17.3354,0.0041
17.3404,0.00446
17.3454,0.00593
17.3504,0.00567
17.3554,0.00511
17.3604,0.00514
17.3654,0.00583
17.3704,0.00633
17.3754,0.00571
17.3804,0.00622
17.3854,0.00863
17.3904,0.0088
17.3954,0.00794
17.4004,0.00598
17.4054,0.00577
17.4104,0.00434
17.4154,0.00409
17.4204,0.00422
17.4254,0.00325
17.4304,0.00109
17.4354,7.28E-04
17.4404,0.00222
17.4454,0.00498
17.4504,0.00695
17.4554,0.01119
17.4604,0.00984
17.4654,0.00971
17.4704,0.01165
17.4754,0.01153
17.4804,0.01137
17.4854,0.01174
17.4904,0.00967
17.4954,0.00957
17.5004,0.00868
17.5054,0.00908
17.5104,0.00812
17.5154,0.00686
17.5204,0.00775
17.5254,0.00788
17.5304,0.00521
17.5354,0.00535
17.5404,0.00509
17.5454,0.00414
17.5504,0.00565
17.5554,0.00823
17.5604,0.00757
17.5654,0.00583
17.5704,0.0055
17.5754,0.00737
17.5804,0.0075
17.5854,0.00854
17.5904,0.00973
17.5954,0.00934
17.6004,0.00935
17.6054,0.00923
17.6104,0.00953
17.6154,0.01033
17.6204,0.01094
17.6254,0.01093
17.6304,0.00761
17.6354,0.00497
17.6404,0.00461
17.6454,0.00338
17.6504,0.00414
17.6554,0.00538
17.6604,0.00311
17.6654,0.00313
17.6704,0.00518
17.6754,0.00777
17.6804,0.00661
17.6854,0.00649
17.6904,0.00684
17.6954,0.00759
17.7004,0.00787
17.7054,0.0083
17.7104,0.00725
17.7154,0.00648
17.7204,0.00616
17.7254,0.00785
17.7304,0.00771
17.7354,0.00835
17.7404,0.00782
17.7454,0.00678
17.7504,0.00723
17.7554,0.01018
17.7604,0.0098
17.7654,0.00806
17.7704,0.0086
17.7754,0.0088
17.7804,0.0089
17.7854,0.00921
17.7904,0.00929
17.7954,0.00919
17.8004,0.00802
17.8054,0.00731
17.8104,0.00631
17.8154,0.0055
17.8204,0.00496
17.8254,0.00562
17.8304,0.00654
17.8354,0.00731
17.8404,0.00861
17.8454,0.00709
17.8504,0.00721
17.8554,0.01083
17.8604,0.01039
17.8654,0.00976
17.8704,0.00903
17.8754,0.0073
17.8804,0.00409
17.8854,0.00223
17.8904,0.00232
17.8954,0.00376
17.9004,0.00302
17.9054,0.00318
17.9104,0.00159
17.9154,0
17.9204,9.16E-04
17.9254,0.00349
17.9304,0.00529
17.9354,0.00489
17.9404,0.00338
17.9454,0.00134
17.9504,0.00383
17.9554,0.00744
17.9604,0.00661
17.9654,0.00626
17.9704,0.00691
17.9754,0.00701
17.9804,0.00778
17.9854,0.00763
17.9904,0.00982
17.9954,0.00945
18.0004,0.0095
18.0054,0.01294
18.0104,0.0115
18.0154,0.01074
18.0204,0.01126
18.0254,0.01029
18.0304,0.01012
18.0354,0.00903
18.0404,0.00772
18.0454,0.00745
18.0504,0.00568
18.0554,0.00854
18.0604,0.00818
18.0654,0.00623
18.0704,0.00732
18.0754,0.00935
18.0804,0.00944
18.0854,0.00871
18.0904,0.00839
18.0954,0.00888
18.1004,0.00796
18.1054,0.00879
18.1104,0.0107
18.1154,0.01109
18.1204,0.01002
18.1254,0.00996
18.1304,0.00957
18.1354,0.0091
18.1404,0.00814
18.1454,0.00823
18.1504,0.00832
18.1554,0.00713
18.1604,0.00657
18.1654,0.00671
18.1704,0.00877
18.1754,0.0101
18.1804,0.01006
18.1854,0.01054
18.1904,0.01125
18.1954,0.01127
18.2004,0.01196
18.2054,0.01122
18.2104,0.01075
18.2154,0.0101
18.2204,0.01089
18.2254,0.01141
18.2304,0.01073
18.2354,0.01109
18.2404,0.01101
18.2454,0.01132
18.2504,0.01342
18.2554,0.01546
18.2604,0.01424
18.2654,0.01402
18.2704,0.01335
18.2754,0.0132
18.2804,0.0124
18.2854,0.01079
18.2904,0.01023
18.2954,0.00972
18.3004,0.00968
18.3054,0.01
18.3104,0.01048
18.3154,0.01086
18.3204,0.01126
18.3254,0.01029
18.3304,0.01321
18.3354,0.0128
18.3404,0.01112
18.3454,0.01052
18.3504,0.01091
18.3554,0.01077
18.3604,0.01022
18.3654,0.01115
18.3704,0.01107
18.3754,0.01021
18.3804,0.00961
18.3854,0.01251
18.3904,0.01214
18.3954,0.01318
18.4004,0.01355
18.4054,0.01372
18.4104,0.01311
18.4154,0.0129
18.4204,0.01169
18.4254,0.01161
18.4304,0.01028
18.4354,0.00937
18.4404,0.00794
18.4454,0.00816
18.4504,0.00951
18.4554,0.01117
18.4604,0.0103
18.4654,0.00935
18.4704,0.01041
18.4754,0.0092
18.4804,0.0101
18.4854,0.01042
18.4904,0.01064
18.4954,0.01059
18.5004,0.00844
18.5054,0.00763
18.5104,0.00715
18.5154,0.00521
18.5204,0.00581
18.5254,0.00472
18.5304,0.00375
18.5354,0.00295
18.5404,0.00217
18.5454,0.00214
18.5504,0.00503
18.5554,0.00783
18.5604,0.00825
18.5654,0.0082
18.5704,0.00922
18.5754,0.01181
18.5804,0.01065
18.5854,0.00962
18.5904,0.0114
18.5954,0.01177
18.6004,0.01279
18.6054,0.01483
18.6104,0.01451
18.6154,0.01404
18.6204,0.01321
18.6254,0.01469
18.6304,0.01599
18.6354,0.01638
18.6404,0.01475
18.6454,0.01323
18.6504,0.01263
18.6554,0.01433
18.6604,0.01429
18.6654,0.01328
18.6704,0.0118
18.6754,0.01214
18.6804,0.01117
18.6854,0.01299
18.6904,0.01388
18.6954,0.01401
18.7004,0.01252
18.7054,0.01177
18.7104,0.01
18.7154,0.01095
18.7204,0.00976
18.7254,0.00839
18.7304,0.00657
18.7354,0.00582
18.7404,0.00764
18.7454,0.00674
18.7504,0.00783
18.7554,0.00888
18.7604,0.00514
18.7654,0.00404
18.7704,0.00585
18.7754,0.00568
18.7804,0.00277
18.7854,6.17E-04
18.7904,0.00186
18.7954,8.29E-04
18.8004,0.00119
18.8054,0.00376
18.8104,0.00317
18.8154,7.46E-04
18.8204,3.56E-04
18.8254,0.00131
18.8304,9.12E-04
18.8354,0
18.8404,4.33E-04
18.8454,4.85E-04
18.8504,0.00123
18.8554,0.00339
18.8604,0.00472
18.8654,0.00495
18.8704,0.00698
18.8754,0.00777
18.8804,0.00914
18.8854,0.01004
18.8904,0.0087
18.8954,0.00808
18.9004,0.00786
18.9054,0.00719
18.9104,0.00742
18.9154,0.00782
18.9204,0.00843
18.9254,0.0088
18.9304,0.00917
18.9354,0.0106
18.9404,0.01076
18.9454,0.01119
18.9504,0.01234
18.9554,0.01273
18.9604,0.00953
18.9654,0.00747
18.9704,0.00751
18.9754,0.0066
18.9804,0.00493
18.9854,0.00351
18.9904,0.00284
18.9954,0.00362
19.0004,0.00456
19.0054,0.00535
19.0104,0.00603
19.0154,0.00547
19.0204,0.00527
19.0254,0.00788
19.0304,0.01016
19.0354,0.00969
19.0404,0.00979
19.0454,0.00989
19.0504,0.01213
19.0554,0.01227
19.0604,0.01058
19.0654,0.00968
19.0704,0.00756
19.0754,0.00635
19.0804,0.00691
19.0854,0.00553
19.0904,0.00309
19.0954,0.00231
19.1004,0.00292
19.1054,0.0036
19.1104,0.00309
19.1154,0.00455
19.1204,0.00465
19.1254,0.00559
19.1304,0.00579
19.1354,0.00794
19.1404,0.00731
19.1454,0.00556
19.1504,0.0059
19.1554,0.00789
19.1604,0.0064
19.1654,0.00572
19.1704,0.00532
19.1754,0.00562
19.1804,0.00396
19.1854,0.00363
19.1904,0.00423
19.1954,0.00431
19.2004,0.00578
19.2054,0.00795
19.2104,0.00771
19.2154,0.00778
19.2204,0.00812
19.2254,0.00892
19.2304,0.00848
19.2354,0.0083
19.2404,0.00638
19.2454,0.00401
19.2504,0.00308
19.2554,0.00324
19.2604,0.00119
19.2654,3.03E-04
19.2704,0.00134
19.2754,0.00145
19.2804,0.00265
19.2854,0.00573
19.2904,0.00461
19.2954,0.00342
19.3004,0.00445
19.3054,0.00583
19.3104,0.00554
19.3154,0.00609
19.3204,0.00874
19.3254,0.00953
19.3304,0.00813
19.3354,0.00899
19.3404,0.00965
19.3454,0.00981
19.3504,0.00988
19.3554,0.01071
19.3604,0.0085
19.3654,0.00603
19.3704,0.00632
19.3754,0.00571
19.3804,0.00535
19.3854,0.00643
19.3904,0.00923
19.3954,0.01222
19.4004,0.01311
19.4054,0.01479
19.4104,0.01516
19.4154,0.01412
19.4204,0.0154
19.4254,0.01716
19.4304,0.01692
19.4354,0.01571
19.4404,0.0132
19.4454,0.01138
19.4504,0.01276
19.4554,0.01302
19.4604,0.01096
19.4654,0.01133
19.4704,0.01157
19.4754,0.01124
19.4804,0.0093
19.4854,0.00781
19.4904,0.00643
19.4954,0.00248
19.5004,0.00285
19.5054,0.00525
19.5104,0.00309
19.5154,0.00147
19.5204,0.00109
19.5254,0.00324
19.5304,0.00523
19.5354,0.0068
19.5404,0.00809
19.5454,0.00811
19.5504,0.00766
19.5554,0.00892
19.5604,0.00808
19.5654,0.00516
19.5704,0.00383
19.5754,0.00466
19.5804,0.00537
19.5854,0.0062
19.5904,0.00599
19.5954,0.00546
19.6004,0.00658
19.6054,0.00617
19.6104,0.00945
19.6154,0.00954
19.6204,0.0074
19.6254,0.00632
19.6304,0.00579
19.6354,0.00524
19.6404,0.00533
19.6454,0.00452
19.6504,0.00611
19.6554,0.00501
19.6604,0.00463
19.6654,0.0049
19.6704,0.00593
19.6754,0.00558
19.6804,0.00423
19.6854,0.00477
19.6904,0.00434
19.6954,0.00479
19.7004,0.00471
19.7054,0.00512
19.7104,0.00398
19.7154,0.0058
19.7204,0.00676
19.7254,0.00901
19.7304,0.00884
19.7354,0.00793
19.7404,0.00667
19.7454,0.00756
19.7504,0.00689
19.7554,0.00901
19.7604,0.00686
19.7654,0.00476
19.7704,0.00566
19.7754,0.00557
19.7804,0.00615
19.7854,0.00852
19.7904,0.00869
19.7954,0.00829
19.8004,0.00684
19.8054,0.00516
19.8104,0.00603
19.8154,0.00367
19.8204,0.00335
19.8254,0.00429
19.8304,0.00226
19.8354,0.00169
19.8404,0.00257
19.8454,0.00274
19.8504,0.00477
19.8554,0.00623
19.8604,0.00552
19.8654,0.00531
19.8704,0.00565
19.8754,0.0059
19.8804,0.0051
19.8854,0.0059
19.8904,0.00796
19.8954,0.00757
19.9004,0.00597
19.9054,0.00766
19.9104,0.00658
19.9154,0.00558
19.9204,0.00544
19.9254,0.0066
19.9304,0.00634
19.9354,0.00376
19.9404,0.00327
19.9454,0.00341
19.9504,0.00236
19.9554,0.00349
19.9604,0.00399
19.9654,0.00265
19.9704,0.00247
19.9754,0.00164
19.9804,7.99E-04
19.9854,6.52E-04
19.9904,0.00275
19.9954,0.00569
20.0004,0.00658
20.0054,0.005
20.0104,0.0071
20.0154,0.00618
20.0204,0.00514
20.0254,0.00452
20.0304,0.00761
20.0354,0.00682
20.0404,0.00476
20.0454,0.00536
20.0504,0.00831
20.0554,0.00757
20.0604,0.00761
20.0654,0.00638
20.0704,0.00935
20.0754,0.00737
20.0804,0.00674
20.0854,0.0061
20.0904,0.00465
20.0954,0.00462
20.1004,0.00363
20.1054,0.0045
20.1104,0.00626
20.1154,0.00646
20.1204,0.00695
20.1254,0.00649
20.1304,0.00615
20.1354,0.00692
20.1404,0.00512
20.1454,0.00679
20.1504,0.00744
20.1554,0.00885
20.1604,0.00874
20.1654,0.00774
20.1704,0.00765
20.1754,0.00885
20.1804,0.00861
20.1854,0.00951
20.1904,0.00908
20.1954,0.00987
20.2004,0.01122
20.2054,0.01116
20.2104,0.01066
20.2154,0.01025
20.2204,0.00997
20.2254,0.01015
20.2304,0.01016
20.2354,0.01005
20.2404,0.00688
20.2454,0.00352
20.2504,0.0029
20.2554,0.00355
20.2604,0.00274
20.2654,0.00195
20.2704,0.00113
20.2754,0
20.2804,0
20.2854,0.00223
20.2904,0.00272
20.2954,0.00421
20.3004,0.00443
20.3054,0.00524
20.3104,0.00597
20.3154,0.00714
20.3204,0.00853
20.3254,0.00909
20.3304,0.00835
20.3354,0.00823
20.3404,0.00783
20.3454,0.00936
20.3504,0.01018
20.3554,0.01127
20.3604,0.0091
20.3654,0.00587
20.3704,0.00484
20.3754,0.00652
20.3804,0.0083
20.3854,0.00749
20.3904,0.00518
20.3954,0.00601
20.4004,0.00669
20.4054,0.00794
20.4104,0.01025
20.4154,0.01117
20.4204,0.01022
20.4254,0.00809
20.4304,0.00675
20.4354,0.00685
20.4404,0.00617
20.4454,0.00524
20.4504,0.00679
20.4554,0.00831
20.4604,0.0075
20.4654,0.00561
20.4704,0.00694
20.4754,0.00837
20.4804,0.00804
20.4854,0.00884
20.4904,0.00906
20.4954,0.00729
20.5004,0.00531
20.5054,0.00447
20.5104,0.00577
20.5154,0.00471
20.5204,0.00331
20.5254,0.00395
20.5304,0.00205
20.5354,0.00129
20.5404,0.00292
20.5454,0.00356
20.5504,0.0059
20.5554,0.00646
20.5604,0.00558
20.5654,0.00564
20.5704,0.00448
20.5754,0.0042
20.5804,0.00307
20.5854,0.00245
20.5904,0.00313
20.5954,0.00375
20.6004,0.00467
20.6054,0.00576
20.6104,0.00584
20.6154,0.00603
20.6204,0.00698
20.6254,0.00798
20.6304,0.00772
20.6354,0.00649
20.6404,0.00639
20.6454,0.00755
20.6504,0.00843
20.6554,0.00921
20.6604,0.00908
20.6654,0.00824
20.6704,0.0097
20.6754,0.0101
20.6804,0.00941
20.6854,0.00925
20.6904,0.00778
20.6954,0.00719
20.7004,0.00829
20.7054,0.0092
20.7104,0.00849
20.7154,0.00753
20.7204,0.00797
20.7254,0.00895
20.7304,0.00774
20.7354,0.0072
20.7404,0.00718
20.7454,0.00615
20.7504,0.00675
20.7554,0.00788
20.7604,0.00605
20.7654,0.0051
20.7704,0.00399
20.7754,0.00431
20.7804,0.00467
20.7854,0.00609
20.7904,0.00721
20.7954,0.00704
20.8004,0.00817
20.8054,0.00935
20.8104,0.0073
20.8154,0.0077
20.8204,0.00712
20.8254,0.00669
20.8304,0.00627
20.8354,0.00534
20.8404,0.00527
20.8454,0.00372
20.8504,0.0031
20.8554,0.00475
20.8604,0.0038
20.8654,0.00368
20.8704,0.00436
20.8754,0.00425
20.8804,0.00402
20.8854,0.00389
20.8904,0.00504
20.8954,0.00699
20.9004,0.00735
20.9054,0.00785
20.9104,0.00818
20.9154,0.0053
20.9204,0.00454
20.9254,0.006
20.9304,0.00572
20.9354,0.0048
20.9404,0.00376
20.9454,0.005
20.9504,0.00812
20.9554,0.01005
20.9604,0.01146
20.9654,0.01037
20.9704,0.00966
20.9754,0.01038
20.9804,0.01047
20.9854,0.01127
20.9904,0.01014
20.9954,0.00862
21.0004,0.00887
21.0054,0.01042
21.0104,0.01059
21.0154,0.00983
21.0204,0.0078
21.0254,0.00779
21.0304,0.0063
21.0354,0.00796
21.0404,0.0089
21.0454,0.00706
21.0504,0.00549
21.0554,0.00735
21.0604,0.00672
21.0654,0.0071
21.0704,0.00806
21.0754,0.00994
21.0804,0.00772
21.0854,0.00741
21.0904,0.00747
21.0954,0.00891
21.1004,0.00939
21.1054,0.01043
21.1104,0.01101
21.1154,0.01309
21.1204,0.01115
21.1254,0.00927
21.1304,0.00615
21.1354,0.0048
21.1404,0.00397
21.1454,0.0022
21.1504,0.00183
21.1554,0.00277
21.1604,0
21.1654,3.70E-04
21.1704,0.00352
21.1754,0.00631
21.1804,0.00743
21.1854,0.00671
21.1904,0.008
21.1954,0.00942
21.2004,0.00894
21.2054,0.0103
21.2104,0.00926
21.2154,0.0086
21.2204,0.00881
21.2254,0.00869
21.2304,0.00925
21.2354,0.00813
21.2404,0.00589
21.2454,0.00571
21.2504,0.00574
21.2554,0.00793
21.2604,0.00711
21.2654,0.00453
21.2704,0.00459
21.2754,0.00422
21.2804,0.00474
21.2854,0.00565
21.2904,0.00587
21.2954,0.00647
21.3004,0.00653
21.3054,0.00612
21.3104,0.00871
21.3154,0.00955
21.3204,0.01064
21.3254,0.01073
21.3304,0.00951
21.3354,0.01039
21.3404,0.01088
21.3454,0.01089
21.3504,0.01268
21.3554,0.0136
21.3604,0.01273
21.3654,0.01058
21.3704,0.01068
21.3754,0.01185
21.3804,0.00959
21.3854,0.00805
21.3904,0.0075
21.3954,0.00727
21.4004,0.00644
21.4054,0.0061
21.4104,0.00652
21.4154,0.00707
21.4204,0.00764
21.4254,0.00977
21.4304,0.01033
21.4354,0.01137
21.4404,0.01096
21.4454,0.00964
21.4504,0.0105
21.4554,0.01161
21.4604,0.00946
21.4654,0.00818
21.4704,0.0079
21.4754,0.00748
21.4804,0.00403
21.4854,0.00277
21.4904,0.00372
21.4954,0.00431
21.5004,0.00445
21.5054,0.00381
21.5104,0.00524
21.5154,0.00491
21.5204,0.00329
21.5254,0.00551
21.5304,0.00494
21.5354,0.00404
21.5404,0.0037
21.5454,0.00389
21.5504,0.00456
21.5554,0.00416
21.5604,0.00387
21.5654,0.0063
21.5704,0.00659
21.5754,0.00801
21.5804,0.00643
21.5854,0.00693
21.5904,0.00772
21.5954,0.00941
21.6004,0.00953
21.6054,0.01116
21.6104,0.01014
21.6154,0.01082
21.6204,0.01291
21.6254,0.01437
21.6304,0.01309
21.6354,0.01162
21.6404,0.01099
21.6454,0.01081
21.6504,0.01037
21.6554,0.01238
21.6604,0.01026
21.6654,0.00756
21.6704,0.00925
21.6754,0.01037
21.6804,0.01025
21.6854,0.01121
21.6904,0.01295
21.6954,0.01347
21.7004,0.01346
21.7054,0.01482
21.7104,0.01622
21.7154,0.01609
21.7204,0.01672
21.7254,0.01766
21.7304,0.01619
21.7354,0.01285
21.7404,0.01011
21.7454,0.00836
21.7504,0.0081
21.7554,0.00918
21.7604,0.00629
21.7654,0.00274
21.7704,0.00284
21.7754,0.00472
21.7804,0.00603
21.7854,0.00762
21.7904,0.00772
21.7954,0.00909
21.8004,0.00853
21.8054,0.00995
21.8104,0.01171
21.8154,0.0124
21.8204,0.01161
21.8254,0.01127
21.8304,0.01102
21.8354,0.01213
21.8404,0.01071
21.8454,0.01005
21.8504,0.01063
21.8554,0.01043
21.8604,0.00937
21.8654,0.00861
21.8704,0.01003
21.8754,0.00964
21.8804,0.00875
21.8854,0.01086
21.8904,0.00999
21.8954,0.0088
21.9004,0.00844
21.9054,0.00737
21.9104,0.00812
21.9154,0.00609
21.9204,0.00544
21.9254,0.0036
21.9304,0
21.9354,6.99E-04
21.9404,0.00165
21.9454,0.00219
21.9504,0.00181
21.9554,0.00219
21.9604,0.00254
21.9654,8.76E-04
21.9704,0.00184
21.9754,0.00425
21.9804,0.0044
21.9854,0.00483
21.9904,0.00492
21.9954,0.00658
22.0004,0.00777
22.0054,0.00843
22.0104,0.00941
22.0154,0.00826
22.0204,0.00653
22.0254,0.00536
22.0304,0.00453
22.0354,0.00431
22.0404,0.00469
22.0454,0.00264
22.0504,0.00301
22.0554,0.00602
22.0604,0.00637
22.0654,0.00519
22.0704,0.00665
22.0754,0.00648
22.0804,0.00461
22.0854,0.00395
22.0904,0.00288
22.0954,0.00274
22.1004,0.00151
22.1054,0.00209
22.1104,0.00174
22.1154,0
22.1204,8.36E-04
22.1254,0.0033
22.1304,0.00176
22.1354,0.00306
22.1404,0.00257
22.1454,0.00317
22.1504,0.00387
22.1554,0.00598
22.1604,0.00646
22.1654,0.00475
22.1704,0.00458
22.1754,0.00601
22.1804,0.00479
22.1854,0.00495
22.1904,0.0049
22.1954,0.00507
22.2004,0.00613
22.2054,0.00602
22.2104,0.00763
22.2154,0.00858
22.2204,0.00811
22.2254,0.00936
22.2304,0.00743
22.2354,0.00611
22.2404,0.00532
22.2454,0.00521
22.2504,0.00506
22.2554,0.00522
22.2604,0.00253
22.2654,0.00248
22.2704,0.00225
22.2754,0.00448
22.2804,0.00497
22.2854,0.00471
22.2904,0.00454
22.2954,0.00616
22.3004,0.0066
22.3054,0.00851
22.3104,0.00787
22.3154,0.00855
22.3204,0.00901
22.3254,0.00918
22.3304,0.00945
22.3354,0.00892
22.3404,0.01012
22.3454,0.01078
22.3504,0.0117
22.3554,0.013
22.3604,0.01275
22.3654,0.01184
22.3704,0.01346
22.3754,0.01347
22.3804,0.01142
22.3854,0.00969
22.3904,0.00835
22.3954,0.00693
22.4004,0.00678
22.4054,0.00635
22.4104,0.00645
22.4154,0.00472
22.4204,0.00605
22.4254,0.00871
22.4304,0.00711
22.4354,0.00776
22.4404,0.00866
22.4454,0.01093
22.4504,0.01229
22.4554,0.01625
22.4604,0.01803
22.4654,0.01701
22.4704,0.01735
22.4754,0.02007
22.4804,0.02132
22.4854,0.02254
22.4904,0.02138
22.4954,0.02141
22.5004,0.01988
22.5054,0.02121
22.5104,0.02313
22.5154,0.02659
22.5204,0.02895
22.5254,0.02942
22.5304,0.02964
22.5354,0.0327
22.5404,0.03386
22.5454,0.03559
22.5504,0.03773
22.5554,0.04067
22.5604,0.03994
22.5654,0.03849
22.5704,0.03941
22.5754,0.0402
22.5804,0.03931
22.5854,0.04222
22.5904,0.04396
22.5954,0.04333
22.6004,0.04309
22.6054,0.0419
22.6104,0.04162
22.6154,0.04189
22.6204,0.04126
22.6254,0.0387
22.6304,0.0352
22.6354,0.03188
22.6404,0.02982
22.6454,0.02821
22.6504,0.02842
22.6554,0.02803
22.6604,0.02502
22.6654,0.0229
22.6704,0.02304
22.6754,0.02179
22.6804,0.02012
22.6854,0.02088
22.6904,0.01994
22.6954,0.01933
22.7004,0.02016
22.7054,0.02075
22.7104,0.01902
22.7154,0.0172
22.7204,0.01674
22.7254,0.01649
22.7304,0.01301
22.7354,0.01134
22.7404,0.00905
22.7454,0.00802
22.7504,0.00654
22.7554,0.00623
22.7604,0.0071
22.7654,0.00522
22.7704,0.00398
22.7754,0.00425
22.7804,0.00319
22.7854,0.0031
22.7904,0.00232
22.7954,0.00325
22.8004,0.00503
22.8054,0.00353
22.8104,0.00262
22.8154,0.00433
22.8204,0.00473
22.8254,0.00519
22.8304,0.00622
22.8354,0.00625
22.8404,0.00578
22.8454,0.00584
22.8504,0.0082
22.8554,0.01125
22.8604,0.00921
22.8654,0.00796
22.8704,0.0075
22.8754,0.00644
22.8804,0.00383
22.8854,0.00233
22.8904,0.00239
22.8954,0.00181
22.9004,6.56E-04
22.9054,0.00244
22.9104,0.00251
22.9154,0.00424
22.9204,0.00567
22.9254,0.00753
22.9304,0.00735
22.9354,0.00565
22.9404,0.00398
22.9454,0.00539
22.9504,0.00666
22.9554,0.00835
22.9604,0.00745
22.9654,0.00476
22.9704,0.00666
22.9754,0.0092
22.9804,0.01122
22.9854,0.01385
22.9904,0.01371
22.9954,0.01303
23.0004,0.01356
23.0054,0.01438
23.0104,0.01601
23.0154,0.01655
23.0204,0.01788
23.0254,0.01795
23.0304,0.01819
23.0354,0.02012
23.0404,0.0203
23.0454,0.02076
23.0504,0.02315
23.0554,0.02635
23.0604,0.02518
23.0654,0.02464
23.0704,0.02497
23.0754,0.02628
23.0804,0.02581
23.0854,0.02718
23.0904,0.02808
23.0954,0.02677
23.1004,0.0276
23.1054,0.02981
23.1104,0.03189
23.1154,0.03469
23.1204,0.03724
23.1254,0.04197
23.1304,0.04696
23.1354,0.05201
23.1404,0.05711
23.1454,0.06012
23.1504,0.06643
23.1554,0.07012
23.1604,0.07531
23.1654,0.07917
23.1704,0.08302
23.1754,0.08864
23.1804,0.0942
23.1854,0.10287
23.1904,0.11252
23.1954,0.12192
23.2004,0.13544
23.2054,0.15001
23.2104,0.16918
23.2154,0.18894
23.2204,0.21061
23.2254,0.23529
23.2304,0.26331
23.2354,0.29463
23.2404,0.32869
23.2454,0.36381
23.2504,0.40523
23.2554,0.44628
23.2604,0.4884
23.2654,0.53156
23.2704,0.57614
23.2754,0.61733
23.2804,0.65386
23.2854,0.69041
23.2904,0.72452
23.2954,0.74772
23.3004,0.76543
23.3054,0.7748
23.3104,0.77508
23.3154,0.7711
23.3204,0.76161
23.3254,0.74711
23.3304,0.72251
23.3354,0.69308
23.3404,0.66099
23.3454,0.62657
23.3504,0.59263
23.3554,0.55985
23.3604,0.52493
23.3654,0.48985
23.3704,0.45939
23.3754,0.43115
23.3804,0.4041
23.3854,0.38007
23.3904,0.35698
23.3954,0.33804
23.4004,0.32182
23.4054,0.30664
23.4104,0.29133
23.4154,0.27714
23.4204,0.26619
23.4254,0.25947
23.4304,0.25401
23.4354,0.25031
23.4404,0.24764
23.4454,0.24678
23.4504,0.24632
23.4554,0.24785
23.4604,0.24946
23.4654,0.25068
23.4704,0.25459
23.4754,0.26002
23.4804,0.26652
23.4854,0.27512
23.4904,0.27963
23.4954,0.28547
23.5004,0.29518
23.5054,0.30527
23.5104,0.31489
23.5154,0.32257
23.5204,0.33297
23.5254,0.34264
23.5304,0.35021
23.5354,0.36197
23.5404,0.37376
23.5454,0.38417
23.5504,0.39546
23.5554,0.40847
23.5604,0.41934
23.5654,0.42738
23.5704,0.43948
23.5754,0.44947
23.5804,0.45585
23.5854,0.46359
23.5904,0.46743
23.5954,0.47054
23.6004,0.47113
23.6054,0.47013
23.6104,0.46715
23.6154,0.45985
23.6204,0.45126
23.6254,0.44336
23.6304,0.43017
23.6354,0.41792
23.6404,0.39925
23.6454,0.38013
23.6504,0.36269
23.6554,0.34414
23.6604,0.32204
23.6654,0.29876
23.6704,0.27619
23.6754,0.25517
23.6804,0.23342
23.6854,0.21829
23.6904,0.20368
23.6954,0.18747
23.7004,0.17344
23.7054,0.16166
23.7104,0.15206
23.7154,0.14224
23.7204,0.13384
23.7254,0.12612
23.7304,0.11542
23.7354,0.10707
23.7404,0.09874
23.7454,0.09073
23.7504,0.08418
23.7554,0.07829
23.7604,0.07132
23.7654,0.06429
23.7704,0.0599
23.7754,0.05762
23.7804,0.05186
23.7854,0.04856
23.7904,0.04551
23.7954,0.04217
23.8004,0.04029
23.8054,0.03902
23.8104,0.03716
23.8154,0.03424
23.8204,0.03256
23.8254,0.03153
23.8304,0.02943
23.8354,0.0273
23.8404,0.02562
23.8454,0.02635
23.8504,0.02693
23.8554,0.02705
23.8604,0.02479
23.8654,0.02027
23.8704,0.0193
23.8754,0.01869
23.8804,0.01786
23.8854,0.01833
23.8904,0.01616
23.8954,0.01419
23.9004,0.01365
23.9054,0.01436
23.9104,0.01654
23.9154,0.01748
23.9204,0.01697
23.9254,0.01749
23.9304,0.01529
23.9354,0.01211
23.9404,0.00978
23.9454,0.00925
23.9504,0.0105
23.9554,0.00966
23.9604,0.00684
23.9654,0.00698
23.9704,0.0053
23.9754,0.00445
23.9804,0.00556
23.9854,0.00786
23.9904,0.00902
23.9954,0.00762
24.0004,0.00625
24.0054,0.00714
24.0104,0.007
24.0154,0.00809
24.0204,0.00934
24.0254,0.00935
24.0304,0.00671
24.0354,0.00396
24.0404,0.00489
24.0454,0.00765
24.0504,0.0086
24.0554,0.00796
24.0604,0.00755
24.0654,0.00772
24.0704,0.00907
24.0754,0.01007
24.0804,0.00964
24.0854,0.00975
24.0904,0.00764
24.0954,0.00514
24.1004,0.00561
24.1054,0.00553
24.1104,0.00441
24.1154,9.29E-04
24.1204,0
24.1254,9.97E-04
24.1304,0
24.1354,9.72E-04
24.1404,0.00252
24.1454,0.00175
24.1504,0.00241
24.1554,0.00486
24.1604,0.00606
24.1654,0.00667
24.1704,0.00909
24.1754,0.00985
24.1804,0.0102
24.1854,0.01032
24.1904,0.01045
24.1954,0.00963
24.2004,0.0083
24.2054,0.01034
24.2104,0.01106
24.2154,0.00831
24.2204,0.0088
24.2254,0.00906
24.2304,0.01002
24.2354,0.00927
24.2404,0.00925
24.2454,0.00993
24.2504,0.00925
24.2554,0.00984
24.2604,0.01027
24.2654,0.0073
24.2704,0.00697
24.2754,0.00735
24.2804,0.00791
24.2854,0.0085
24.2904,0.00699
24.2954,0.00511
24.3004,0.00485
24.3054,0.00434
24.3104,0.00639
24.3154,0.00416
24.3204,0.00167
24.3254,0.00171
24.3304,2.16E-05
24.3354,6.17E-04
24.3404,0.00179
24.3454,0.00189
24.3504,0.00263
24.3554,0.00248
24.3604,0.00373
24.3654,0.00413
24.3704,0.00393
24.3754,0.0043
24.3804,0.00461
24.3854,0.00571
24.3904,0.00573
24.3954,0.00701
24.4004,0.00815
24.4054,0.00896
24.4104,0.00842
24.4154,0.00895
24.4204,0.0094
24.4254,0.00878
24.4304,0.00865
24.4354,0.00864
24.4404,0.00852
24.4454,0.00879
24.4504,0.00959
24.4554,0.01229
24.4604,0.01248
24.4654,0.01155
24.4704,0.01322
24.4754,0.01364
24.4804,0.01206
24.4854,0.01106
24.4904,0.01005
24.4954,0.00882
24.5004,0.0068
24.5054,0.00576
24.5104,0.00651
24.5154,0.0062
24.5204,0.00465
24.5254,0.00596
24.5304,0.00525
24.5354,0.00381
24.5404,0.00344
24.5454,0.0055
24.5504,0.00713
24.5554,0.00828
24.5604,0.0056
24.5654,0.0068
24.5704,0.00782
24.5754,0.00695
24.5804,0.00795
24.5854,0.00829
24.5904,0.00768
24.5954,0.00626
24.6004,0.00467
24.6054,0.00692
24.6104,0.00664
24.6154,0.00487
24.6204,0.00625
24.6254,0.00679
24.6304,0.0068
24.6354,0.00591
24.6404,0.00594
24.6454,0.00664
24.6504,0.00583
24.6554,0.00612
24.6604,0.00569
24.6654,0.0049
24.6704,0.00566
24.6754,0.00574
24.6804,0.00488
24.6854,0.005
24.6904,0.00508
24.6954,0.0055
24.7004,0.00595
24.7054,0.00635
24.7104,0.0068
24.7154,0.00684
24.7204,0.0078
24.7254,0.01032
24.7304,0.01147
24.7354,0.01123
24.7404,0.0108
24.7454,0.01014
24.7504,0.01214
24.7554,0.01225
24.7604,0.00853
24.7654,0.00699
24.7704,0.00734
24.7754,0.00703
24.7804,0.00591
24.7854,0.00625
24.7904,0.00688
24.7954,0.0058
24.8004,0.00591
24.8054,0.00741
24.8104,0.00699
24.8154,0.0064
24.8204,0.0078
24.8254,0.00914
24.8304,0.00886
24.8354,0.00869
24.8404,0.00815
24.8454,0.00979
24.8504,0.01097
24.8554,0.01343
24.8604,0.01291
24.8654,0.01107
24.8704,0.01065
24.8754,0.00896
24.8804,0.00774
24.8854,0.00896
24.8904,0.0089
24.8954,0.00969
24.9004,0.00969
24.9054,0.00919
24.9104,0.0098
24.9154,0.00987
24.9204,0.01189
24.9254,0.01158
24.9304,0.01148
24.9354,0.01024
24.9404,0.00951
24.9454,0.00744
24.9504,0.00884
24.9554,0.00843
24.9604,0.00784
24.9654,0.00577
24.9704,0.00608
24.9754,0.00389
24.9804,0.00407
24.9854,0.00392
24.9904,0.00355
24.9954,0.00111
25.0004,0.00229
25.0054,0.00307
25.0104,0.00358
25.0154,0.00372
25.0204,0.00453
25.0254,0.0046
25.0304,0.00594
25.0354,0.00702
25.0404,0.0064
25.0454,0.00598
25.0504,0.00799
25.0554,0.00906
25.0604,0.00758
25.0654,0.00505
25.0704,0.00356
25.0754,0.00221
25.0804,0.00278
25.0854,0.00611
25.0904,0.00645
25.0954,0.00683
25.1004,0.00887
25.1054,0.00929
25.1104,0.01084
25.1154,0.011
25.1204,0.01145
25.1254,0.01017
25.1304,0.00698
25.1354,0.00544
25.1404,0.00211
25.1454,0
25.1504,0.00133
25.1554,0.00247
25.1604,0.00276
25.1654,0.00123
25.1704,4.28E-04
25.1754,2.79E-04
25.1804,0.00338
25.1854,0.00699
25.1904,0.00916
25.1954,0.00898
25.2004,0.01074
25.2054,0.01013
25.2104,0.01083
25.2154,0.01273
25.2204,0.01464
25.2254,0.01237
25.2304,0.00974
25.2354,0.00738
25.2404,0.00732
25.2454,0.00599
25.2504,0.00802
25.2554,0.00763
25.2604,0.00621
25.2654,0.00562
25.2704,0.00475
25.2754,0.0058
25.2804,0.0061
25.2854,0.00742
25.2904,0.00767
25.2954,0.00636
25.3004,0.00634
25.3054,0.00676
25.3104,0.00693
25.3154,0.00912
25.3204,0.00789
25.3254,0.0078
25.3304,0.00538
25.3354,0.00322
25.3404,0.00453
25.3454,0.00624
25.3504,0.00887
25.3554,0.01004
25.3604,0.00785
25.3654,0.0089
25.3704,0.0112
25.3754,0.01251
25.3804,0.01349
25.3854,0.01312
25.3904,0.01195
25.3954,0.01065
25.4004,0.00908
25.4054,0.01075
25.4104,0.01093
25.4154,0.00986
25.4204,0.01199
25.4254,0.01201
25.4304,0.01135
25.4354,0.01125
25.4404,0.01017
25.4454,0.01214
25.4504,0.01171
25.4554,0.01062
25.4604,0.00836
25.4654,0.00782
25.4704,0.01022
25.4754,0.0103
25.4804,0.01064
25.4854,0.01262
25.4904,0.01259
25.4954,0.01212
25.5004,0.01265
25.5054,0.01348
25.5104,0.013
25.5154,0.01039
25.5204,0.00929
25.5254,0.00849
25.5304,0.00658
25.5354,0.00521
25.5404,0.00659
25.5454,0.00708
25.5504,0.00801
25.5554,0.00683
25.5604,0.00763
25.5654,0.00919
25.5704,0.01047
25.5754,0.00983
25.5804,0.00903
25.5854,0.00729
25.5904,0.00785
25.5954,0.01017
25.6004,0.01176
25.6054,0.0123
25.6104,0.01145
25.6154,0.00845
25.6204,0.00858
25.6254,0.00957
25.6304,0.0109
25.6354,0.01204
25.6404,0.01039
25.6454,0.00955
25.6504,0.01002
25.6554,0.01079
25.6604,0.01267
25.6654,0.01268
25.6704,0.01351
25.6754,0.01281
25.6804,0.0099
25.6854,0.00896
25.6904,0.00866
25.6954,0.0079
25.7004,0.00773
25.7054,0.00849
25.7104,0.0089
25.7154,0.00811
25.7204,0.00803
25.7254,0.00854
25.7304,0.00834
25.7354,0.00705
25.7404,0.00404
25.7454,0.00264
25.7504,0.0031
25.7554,0.00341
25.7604,0.00166
25.7654,0
25.7704,3.87E-04
25.7754,0.00125
25.7804,0.00312
25.7854,0.00762
25.7904,0.00991
25.7954,0.00843
25.8004,0.00746
25.8054,0.00939
25.8104,0.01135
25.8154,0.01147
25.8204,0.01158
25.8254,0.01116
25.8304,0.00899
25.8354,0.00869
25.8404,0.01083
25.8454,0.01122
25.8504,0.01047
25.8554,0.0096
25.8604,0.0081
25.8654,0.00667
25.8704,0.0059
25.8754,0.00595
25.8804,0.00428
25.8854,0.00127
25.8904,9.81E-04
25.8954,0.00109
25.9004,7.94E-04
25.9054,0.0016
25.9104,0.00215
25.9154,0.00351
25.9204,0.00578
25.9254,0.00781
25.9304,0.01096
25.9354,0.01133
25.9404,0.0102
25.9454,0.01244
25.9504,0.01331
25.9554,0.01359
25.9604,0.01167
25.9654,0.00886
25.9704,0.00859
25.9754,0.00676
25.9804,0.00681
25.9854,0.0081
25.9904,0.00603
25.9954,0.00545
26.0004,0.0047
26.0054,0.00452
26.0104,0.00536
26.0154,0.00532
26.0204,0.00515
26.0254,0.00508
26.0304,0.00508
26.0354,0.00661
26.0404,0.00737
26.0454,0.00917
26.0504,0.0101
26.0554,0.01009
26.0604,0.00805
26.0654,0.00835
26.0704,0.00986
26.0754,0.00884
26.0804,0.0058
26.0854,0.00596
26.0904,0.00501
26.0954,0.00475
26.1004,0.00529
26.1054,0.00828
26.1104,0.01066
26.1154,0.01057
26.1204,0.01173
26.1254,0.01245
26.1304,0.01022
26.1354,0.01201
26.1404,0.01216
26.1454,0.01284
26.1504,0.01067
26.1554,0.00849
26.1604,0.00735
26.1654,0.0054
26.1704,0.00689
26.1754,0.00987
26.1804,0.00817
26.1854,0.00745
26.1904,0.00507
26.1954,0.00555
26.2004,0.00558
26.2054,0.00528
26.2104,0.00785
26.2154,0.00817
26.2204,0.00612
26.2254,0.00707
26.2304,0.00717
26.2354,0.00846
26.2404,0.00788
26.2454,0.00658
26.2504,0.00625
26.2554,0.00514
26.2604,0.00385
26.2654,0.00258
26.2704,0.00148
26.2754,0.00176
26.2804,0.00122
26.2854,0.00212
26.2904,0.0038
26.2954,0.00447
26.3004,0.00569
26.3054,0.00603
26.3104,0.0079
26.3154,0.00866
26.3204,0.01239
26.3254,0.01409
26.3304,0.01434
26.3354,0.01341
26.3404,0.01331
26.3454,0.01273
26.3504,0.01425
26.3554,0.01345
26.3604,0.0115
26.3654,0.00745
26.3704,0.00767
26.3754,0.00796
26.3804,0.00828
26.3854,0.00894
26.3904,0.00897
26.3954,0.0068
26.4004,0.00623
26.4054,0.00687
26.4104,0.00865
26.4154,0.00775
26.4204,0.007
26.4254,0.00711
26.4304,0.00688
26.4354,0.00668
26.4404,0.00865
26.4454,0.01187
26.4504,0.01405
26.4554,0.01378
26.4604,0.01326
26.4654,0.0119
26.4704,0.01288
26.4754,0.0137
26.4804,0.01347
26.4854,0.01334
26.4904,0.01101
26.4954,0.01121
26.5004,0.0103
26.5054,0.01021
26.5104,0.00912
26.5154,0.00698
26.5204,0.00598
26.5254,0.00544
26.5304,0.00402
26.5354,0.00373
26.5404,0.00133
26.5454,0.00174
26.5504,0.00249
26.5554,0.00544
26.5604,0.00566
26.5654,0.00577
26.5704,0.00613
26.5754,0.00695
26.5804,0.00853
26.5854,0.01095
26.5904,0.0111
26.5954,0.0091
26.6004,0.00827
26.6054,0.00861
26.6104,0.00719
26.6154,0.00692
26.6204,0.00742
26.6254,0.00651
26.6304,0.00394
26.6354,0.00357
26.6404,0.00527
26.6454,0.00481
26.6504,0.00588
26.6554,0.00752
26.6604,0.00739
26.6654,0.00444
26.6704,0.00344
26.6754,0.00313
26.6804,0.0021
26.6854,0.00233
26.6904,0.00358
26.6954,0.00297
26.7004,0.00294
26.7054,0.00107
26.7104,5.50E-04
26.7154,9.82E-04
26.7204,0.00252
26.7254,0.00404
26.7304,0.00347
26.7354,0.00134
26.7404,0.00193
26.7454,0.00197
26.7504,0.00335
26.7554,0.00683
26.7604,0.00682
26.7654,0.00608
26.7704,0.00612
26.7754,0.0058
26.7804,0.00765
26.7854,0.00703
26.7904,0.00642
26.7954,0.00752
26.8004,0.00634
26.8054,0.00531
26.8104,0.00548
26.8154,0.00603
26.8204,0.00667
26.8254,0.00524
26.8304,0.00575
26.8354,0.00546
26.8404,0.0054
26.8454,0.00547
26.8504,0.00767
26.8554,0.00832
26.8604,0.00643
26.8654,0.00551
26.8704,0.00798
26.8754,0.00794
26.8804,0.00712
26.8854,0.00866
26.8904,0.01056
26.8954,0.0125
26.9004,0.01131
26.9054,0.01067
26.9104,0.0097
26.9154,0.00662
26.9204,0.00703
26.9254,0.00853
26.9304,0.00671
26.9354,0.00621
26.9404,0.00365
26.9454,0.00425
26.9504,0.00715
26.9554,0.01045
26.9604,0.01038
26.9654,0.00791
26.9704,0.00846
26.9754,0.00806
26.9804,0.00588
26.9854,0.00594
26.9904,0.00665
26.9954,0.00678
27.0004,0.00599
27.0054,0.00631
27.0104,0.00739
27.0154,0.00753
27.0204,0.009
27.0254,0.01061
27.0304,0.01059
27.0354,0.00925
27.0404,0.00639
27.0454,0.00573
27.0504,0.0064
27.0554,0.00742
27.0604,0.00625
27.0654,0.00421
27.0704,0.00395
27.0754,0.00428
27.0804,0.00416
27.0854,0.00668
27.0904,0.00784
27.0954,0.01007
27.1004,0.01169
27.1054,0.01159
27.1104,0.01174
27.1154,0.01078
27.1204,0.01024
27.1254,0.01215
27.1304,0.01137
27.1354,0.00983
27.1404,0.00883
27.1454,0.00701
27.1504,0.00773
27.1554,0.01025
27.1604,0.01078
27.1654,0.01077
27.1704,0.0105
27.1754,0.0118
27.1804,0.01262
27.1854,0.0134
27.1904,0.01537
27.1954,0.01676
27.2004,0.01611
27.2054,0.01715
27.2104,0.01676
27.2154,0.0163
27.2204,0.01475
27.2254,0.01268
27.2304,0.01165
27.2354,0.0094
27.2404,0.00665
27.2454,0.00702
27.2504,0.00645
27.2554,0.00724
27.2604,0.00621
27.2654,0.00705
27.2704,0.00951
27.2754,0.00941
27.2804,0.01005
27.2854,0.01267
27.2904,0.01288
27.2954,0.01423
27.3004,0.01389
27.3054,0.01309
27.3104,0.01319
27.3154,0.01357
27.3204,0.01533
27.3254,0.01592
27.3304,0.01592
27.3354,0.01574
27.3404,0.01523
27.3454,0.01517
27.3504,0.01768
27.3554,0.01544
27.3604,0.01183
27.3654,0.00886
27.3704,0.00826
27.3754,0.00721
27.3804,0.00457
27.3854,0.00404
27.3904,0.00322
27.3954,4.88E-04
27.4004,0.00237
27.4054,0.00404
27.4104,0.00406
27.4154,0.00356
27.4204,0.00436
27.4254,0.00642
27.4304,0.00503
27.4354,0.00789
27.4404,0.01027
27.4454,0.01198
27.4504,0.01292
27.4554,0.01453
27.4604,0.01297
27.4654,0.01098
27.4704,0.00975
27.4754,0.00987
27.4804,0.00865
27.4854,0.00795
27.4904,0.00521
27.4954,0.00444
27.5004,0.00352
27.5054,0.00366
27.5104,0.00305
27.5154,0.00355
27.5204,0.00462
27.5254,0.00259
27.5304,2.36E-04
27.5354,0.00124
27.5404,0.00109
27.5454,0.00114
27.5504,0.0028
27.5554,0.00575
27.5604,0.00738
27.5654,0.00651
27.5704,0.00732
27.5754,0.00887
27.5804,0.00698
27.5854,0.00764
27.5904,0.0074
27.5954,0.00745
27.6004,0.00857
27.6054,0.00835
27.6104,0.00729
27.6154,0.00678
27.6204,0.00806
27.6254,0.00832
27.6304,0.00775
27.6354,0.01002
27.6404,0.01069
27.6454,0.00734
27.6504,0.00705
27.6554,0.00952
27.6604,0.00959
27.6654,0.00727
27.6704,0.00604
27.6754,0.00486
27.6804,0.00276
27.6854,0.00229
27.6904,0.00362
27.6954,0.00267
27.7004,0.00104
27.7054,0.00137
27.7104,0.00164
27.7154,0.00464
27.7204,0.00603
27.7254,0.00538
27.7304,0.00371
27.7354,0.00238
27.7404,0.003
27.7454,0.00409
27.7504,0.00586
27.7554,0.00683
27.7604,0.00434
27.7654,0.00316
27.7704,0.0047
27.7754,0.00566
27.7804,0.00392
27.7854,0.00232
27.7904,8.22E-04
27.7954,4.80E-04
27.8004,0
27.8054,8.82E-04
27.8104,0.00153
27.8154,0.00147
27.8204,0.00312
27.8254,0.00601
27.8304,0.00652
27.8354,0.00706
27.8404,0.0049
27.8454,0.00588
27.8504,0.00793
27.8554,0.00928
27.8604,0.00785
27.8654,0.00488
27.8704,0.00435
27.8754,0.00502
27.8804,0.0048
27.8854,0.0059
27.8904,0.00478
27.8954,0.00276
27.9004,0.00271
27.9054,0.00308
27.9104,0.00469
27.9154,0.00445
27.9204,0.00427
27.9254,0.00529
27.9304,0.00496
27.9354,0.00613
27.9404,0.00615
27.9454,0.00451
27.9504,0.00559
27.9554,0.00542
27.9604,0.00322
27.9654,5.54E-04
27.9704,8.94E-04
27.9754,0.0024
27.9804,0
27.9854,0.00215
27.9904,0.00381
27.9954,0.00315
28.0004,0.00275
28.0054,0.00482
28.0104,0.00685
28.0154,0.00664
28.0204,0.00678
28.0254,0.00959
28.0304,0.00761
28.0354,0.00675
28.0404,0.00591
28.0454,0.0067
28.0504,0.00857
28.0554,0.01029
28.0604,0.00992
28.0654,0.00793
28.0704,0.00671
28.0754,0.00689
28.0804,0.0059
28.0854,0.00658
28.0904,0.00623
28.0954,0.00428
28.1004,0.00417
28.1054,0.00265
28.1104,0.00219
28.1154,0.00222
28.1204,0.00101
28.1254,0.00268
28.1304,0.0027
28.1354,0.00276
28.1404,0.00383
28.1454,0.00252
28.1504,0.00468
28.1554,0.00673
28.1604,0.00566
28.1654,0.00556
28.1704,0.00571
28.1754,0.00744
28.1804,0.00644
28.1854,0.00627
28.1904,0.006
28.1954,0.00471
28.2004,0.00484
28.2054,0.00592
28.2104,0.00623
28.2154,0.00496
28.2204,0.00317
28.2254,0.00418
28.2304,0.00229
28.2354,0.00275
28.2404,0.00328
28.2454,0.00227
28.2504,0.00343
28.2554,0.0045
28.2604,0.00402
28.2654,0.00386
28.2704,0.0033
28.2754,0.00487
28.2804,0.00401
28.2854,0.0053
28.2904,0.0065
28.2954,0.0059
28.3004,0.00507
28.3054,0.00401
28.3104,0.00262
28.3154,0.00223
28.3204,0.00296
28.3254,0.0042
28.3304,0.00397
28.3354,0.00374
28.3404,0.00361
28.3454,0.00407
28.3504,0.00654
28.3554,0.0111
28.3604,0.01026
28.3654,0.00961
28.3704,0.01008
28.3754,0.01044
28.3804,0.00918
28.3854,0.00878
28.3904,0.00856
28.3954,0.0093
28.4004,0.00777
28.4054,0.00919
28.4104,0.00857
28.4154,0.0068
28.4204,0.00481
28.4254,0.00422
28.4304,0.00379
28.4354,0.00533
28.4404,0.00366
28.4454,0.00346
28.4504,0.00344
28.4554,0.00477
28.4604,0.00513
28.4654,0.00501
28.4704,0.00679
28.4754,0.00833
28.4804,0.00746
28.4854,0.00851
28.4904,0.00667
28.4954,0.0077
28.5004,0.0071
28.5054,0.00597
28.5104,0.00611
28.5154,0.00512
28.5204,0.00531
28.5254,0.00498
28.5304,0.00524
28.5354,0.00648
28.5404,0.00526
28.5454,0.0052
28.5504,0.00847
28.5554,0.01034
28.5604,0.00993
28.5654,0.00865
28.5704,0.00958
28.5754,0.00868
28.5804,0.00784
28.5854,0.00874
28.5904,0.00813
28.5954,0.00664
28.6004,0.00713
28.6054,0.00781
28.6104,0.00757
28.6154,0.00639
28.6204,0.00663
28.6254,0.00775
28.6304,0.00606
28.6354,0.00654
28.6404,0.00766
28.6454,0.00649
28.6504,0.00709
28.6554,0.00728
28.6604,0.00765
28.6654,0.0081
28.6704,0.00711
28.6754,0.00855
28.6804,0.00801
28.6854,0.00866
28.6904,0.00846
28.6954,0.0079
28.7004,0.00873
28.7054,0.00966
28.7104,0.00877
28.7154,0.01077
28.7204,0.01234
28.7254,0.01079
28.7304,0.00846
28.7354,0.00679
28.7404,0.00618
28.7454,0.00663
28.7504,0.00781
28.7554,0.00815
28.7604,0.00673
28.7654,0.00392
28.7704,0.00674
28.7754,0.00792
28.7804,0.00836
28.7854,0.00833
28.7904,0.00676
28.7954,0.00548
28.8004,0.00595
28.8054,0.00622
28.8104,0.00638
28.8154,0.00398
28.8204,0.00321
28.8254,0.00414
28.8304,0.00563
28.8354,0.00663
28.8404,0.00518
28.8454,0.00531
28.8504,0.00589
28.8554,0.00709
28.8604,0.00786
28.8654,0.00599
28.8704,0.00672
28.8754,0.0061
28.8804,0.00558
28.8854,0.00728
28.8904,0.00621
28.8954,0.00644
28.9004,0.00607
28.9054,0.00726
28.9104,0.00842
28.9154,0.00762
28.9204,0.00765
28.9254,0.00884
28.9304,0.00666
28.9354,0.00617
28.9404,0.00622
28.9454,0.00732
28.9504,0.00576
28.9554,0.00648
28.9604,0.00645
28.9654,0.00515
28.9704,0.00527
28.9754,0.00608
28.9804,0.00683
28.9854,0.0068
28.9904,0.00492
28.9954,0.00574
29.0004,0.00638
29.0054,0.00561
29.0104,0.00525
29.0154,0.00389
29.0204,0.00513
29.0254,0.0038
29.0304,7.18E-04
29.0354,0.00117
29.0404,0.00141
29.0454,0
29.0504,6.34E-04
29.0554,0.00283
29.0604,0.00153
29.0654,6.92E-05
29.0704,0.00203
29.0754,0.00434
29.0804,0.0046
29.0854,0.00498
29.0904,0.00632
29.0954,0.00673
29.1004,0.0064
29.1054,0.00834
29.1104,0.00875
29.1154,0.00953
29.1204,0.00894
29.1254,0.00991
29.1304,0.00984
29.1354,0.00885
29.1404,0.00906
29.1454,0.0095
29.1504,0.0094
29.1554,0.01297
29.1604,0.00985
29.1654,0.00836
29.1704,0.00882
29.1754,0.00984
29.1804,0.01146
29.1854,0.01255
29.1904,0.01206
29.1954,0.012
29.2004,0.01006
29.2054,0.01034
29.2104,0.01099
29.2154,0.01113
29.2204,0.01076
29.2254,0.00919
29.2304,0.00843
29.2354,0.00769
29.2404,0.00876
29.2454,0.00829
29.2504,0.00935
29.2554,0.01122
29.2604,0.00908
29.2654,0.00745
29.2704,0.00795
29.2754,0.00774
29.2804,0.00825
29.2854,0.00699
29.2904,0.00883
29.2954,0.01105
29.3004,0.01
29.3054,0.01123
29.3104,0.01144
29.3154,0.0124
29.3204,0.01195
29.3254,0.01112
29.3304,0.01147
29.3354,0.00865
29.3404,0.00694
29.3454,0.00671
29.3504,0.00724
29.3554,0.00803
29.3604,0.00529
29.3654,0.00307
29.3704,0.00373
29.3754,0.00298
29.3804,0.00353
29.3854,0.00432
29.3904,0.0059
29.3954,0.0049
29.4004,0.00555
29.4054,0.00812
29.4104,0.0083
29.4154,0.00826
29.4204,0.01006
29.4254,0.0101
29.4304,0.00858
29.4354,0.00729
29.4404,0.0081
29.4454,0.00794
29.4504,0.00936
29.4554,0.01238
29.4604,0.01142
29.4654,0.00885
29.4704,0.0095
29.4754,0.01114
29.4804,0.01052
29.4854,0.00915
29.4904,0.00887
29.4954,0.0077
29.5004,0.00845
29.5054,0.00914
29.5104,0.009
29.5154,0.00819
29.5204,0.00821
29.5254,0.00903
29.5304,0.0098
29.5354,0.01035
29.5404,0.00775
29.5454,0.00553
29.5504,0.00621
29.5554,0.00832
29.5604,0.00889
29.5654,0.00772
29.5704,0.00698
29.5754,0.00595
29.5804,0.00393
29.5854,0.00688
29.5904,0.00732
29.5954,0.00721
29.6004,0.00686
29.6054,0.0065
29.6104,0.00877
29.6154,0.01154
29.6204,0.01206
29.6254,0.01373
29.6304,0.01277
29.6354,0.01371
29.6404,0.01349
29.6454,0.01521
29.6504,0.01624
29.6554,0.01519
29.6604,0.013
29.6654,0.01357
29.6704,0.01259
29.6754,0.0123
29.6804,0.01269
29.6854,0.01271
29.6904,0.01123
29.6954,0.01121
29.7004,0.00923
29.7054,0.00804
29.7104,0.00665
29.7154,0.00717
29.7204,0.00686
29.7254,0.00467
29.7304,0.0042
29.7354,0.00128
29.7404,0
29.7454,0.00181
29.7504,0.00365
29.7554,0.00419
29.7604,0.00335
29.7654,0.00358
29.7704,0.00609
29.7754,0.0064
29.7804,0.00757
29.7854,0.00789
29.7904,0.00841
29.7954,0.00875
29.8004,0.01096
29.8054,0.01177
29.8104,0.01086
29.8154,0.00905
29.8204,0.00957
29.8254,0.00996
29.8304,0.00812
29.8354,0.0049
29.8404,0.00241
29.8454,0.00141
29.8504,0.00356
29.8554,0.00537
29.8604,0.00603
29.8654,0.00596
29.8704,0.00693
29.8754,0.00922
29.8804,0.01081
29.8854,0.01155
29.8904,0.0107
29.8954,0.00822
29.9004,0.00819
29.9054,0.0072
29.9104,0.00614
29.9154,0.00662
29.9204,0.00676
29.9254,0.00851
29.9304,0.00892
29.9354,0.00891
29.9404,0.00787
29.9454,0.0073
29.9504,0.00859
29.9554,0.00956
29.9604,0.0068
29.9654,0.00593
29.9704,0.00565
29.9754,0.00546
29.9804,0.00494
29.9854,0.00588
29.9904,0.00422
29.9954,0.00435
30.0004,0.00386
30.0054,0.00528
30.0104,0.00518
30.0154,0.00371
30.0204,0.00387
30.0254,0.00432
30.0304,0.00593
30.0354,0.00683
30.0404,0.00562
30.0454,0.00517
30.0504,0.00568
30.0554,0.00576
30.0604,0.0055
30.0654,0.00597
30.0704,0.00664
30.0754,0.00486
30.0804,0.00539
30.0854,0.00647
30.0904,0.00833
30.0954,0.01044
30.1004,0.01213
30.1054,0.01345
30.1104,0.01257
30.1154,0.01165
30.1204,0.01229
30.1254,0.01108
30.1304,0.00877
30.1354,0.00753
30.1404,0.00493
30.1454,0.00333
30.1504,0.00123
30.1554,0.00175
30.1604,0.0023
30.1654,0.00293
30.1704,0.00659
30.1754,0.00856
30.1804,0.00825
30.1854,0.00791
30.1904,0.00721
30.1954,0.00954
30.2004,0.01097
30.2054,0.01056
30.2104,0.00829
30.2154,0.00609
30.2204,0.00585
30.2254,0.00464
30.2304,0.0047
30.2354,0.00487
30.2404,0.003
30.2454,0.00124
30.2504,0.00199
30.2554,0.00303
30.2604,0.00305
30.2654,0.00267
30.2704,0.00336
30.2754,0.00301
30.2804,0.00318
30.2854,0.00413
30.2904,0.0054
30.2954,0.00625
30.3004,0.00738
30.3054,0.00611
30.3104,0.00608
30.3154,0.00537
30.3204,0.00515
30.3254,0.00687
30.3304,0.00627
30.3354,0.00557
30.3404,0.00476
30.3454,0.00537
30.3504,0.0075
30.3554,0.00745
30.3604,0.0072
30.3654,0.00779
30.3704,0.00538
30.3754,0.00573
30.3804,0.00606
30.3854,0.00518
30.3904,0.00432
30.3954,0.00315
30.4004,0.00307
30.4054,0.00562
30.4104,0.00533
30.4154,0.0065
30.4204,0.00828
30.4254,0.00738
30.4304,0.00701
30.4354,0.00735
30.4404,0.0071
30.4454,0.00604
30.4504,0.00464
30.4554,0.0064
30.4604,0.00544
30.4654,0.00402
30.4704,0.0059
30.4754,0.00736
30.4804,0.00582
30.4854,0.00616
30.4904,0.00616
30.4954,0.00692
30.5004,0.0064
30.5054,0.00615
30.5104,0.00518
30.5154,0.00529
30.5204,0.0049
30.5254,0.00689
30.5304,0.00586
30.5354,0.00797
30.5404,0.00743
30.5454,0.00689
30.5504,0.00786
30.5554,0.00917
30.5604,0.00701
30.5654,0.00508
30.5704,0.00297
30.5754,0.00579
30.5804,0.00641
30.5854,0.00781
30.5904,0.00926
30.5954,0.00914
30.6004,0.00896
30.6054,0.00825
30.6104,0.00956
30.6154,0.01096
30.6204,0.0093
30.6254,0.0108
30.6304,0.01083
30.6354,0.00903
30.6404,0.00845
30.6454,0.00947
30.6504,0.01133
30.6554,0.01093
30.6604,0.00961
30.6654,0.00955
30.6704,0.00729
30.6754,0.00409
30.6804,0.00327
30.6854,0.00606
30.6904,0.00562
30.6954,0.0055
30.7004,0.00578
30.7054,0.00522
30.7104,0.00423
30.7154,0.00361
30.7204,0.00591
30.7254,0.00645
30.7304,0.00384
30.7354,0.00352
30.7404,0.00313
30.7454,0.00459
30.7504,0.00646
30.7554,0.0078
30.7604,0.00728
30.7654,0.00597
30.7704,0.00717
30.7754,0.00757
30.7804,0.00637
30.7854,0.00684
30.7904,0.00652
30.7954,0.00681
30.8004,0.00807
30.8054,0.00995
30.8104,0.01103
30.8154,0.01072
30.8204,0.00999
30.8254,0.01043
30.8304,0.01024
30.8354,0.00978
30.8404,0.00937
30.8454,0.00728
30.8504,0.00675
30.8554,0.00678
30.8604,0.00671
30.8654,0.00612
30.8704,0.00595
30.8754,0.00602
30.8804,0.00535
30.8854,0.00554
30.8904,0.00353
30.8954,0.00334
30.9004,0.00516
30.9054,0.00573
30.9104,0.00852
30.9154,0.00956
30.9204,0.00905
30.9254,0.00922
30.9304,0.00811
30.9354,0.01016
30.9404,0.01017
30.9454,0.00889
30.9504,0.00995
30.9554,0.00783
30.9604,0.00653
30.9654,0.00684
30.9704,0.00763
30.9754,0.00837
30.9804,0.00908
30.9854,0.00705
30.9904,0.00629
30.9954,0.00598
31.0004,0.00528
31.0054,0.00451
31.0104,0.0033
31.0154,0.00331
31.0204,0.00383
31.0254,0.0032
31.0304,0.0034
31.0354,0.00159
31.0404,0
31.0454,0.00128
31.0504,0.00335
31.0554,0.00411
31.0604,0.00449
31.0654,0.00231
31.0704,0.0026
31.0754,0.00422
31.0804,0.00647
31.0854,0.00679
31.0904,0.00683
31.0954,0.00832
31.1004,0.00985
31.1054,0.00903
31.1104,0.00877
31.1154,0.00863
31.1204,0.01019
31.1254,0.0102
31.1304,0.01077
31.1354,0.01105
31.1404,0.0086
31.1454,0.00742
31.1504,0.00908
31.1554,0.0108
31.1604,0.01011
31.1654,0.00733
31.1704,0.00661
31.1754,0.00562
31.1804,0.00245
31.1854,0.00151
31.1904,0.00321
31.1954,0.00221
31.2004,0.00338
31.2054,0.00433
31.2104,0.00502
31.2154,0.00666
31.2204,0.00796
31.2254,0.01081
31.2304,0.0122
31.2354,0.00951
31.2404,0.00823
31.2454,0.00668
31.2504,0.00714
31.2554,0.0089
31.2604,0.00733
31.2654,0.00656
31.2704,0.00643
31.2754,0.00667
31.2804,0.00755
31.2854,0.00944
31.2904,0.01008
31.2954,0.00977
31.3004,0.00854
31.3054,0.00748
31.3104,0.00717
31.3154,0.008
31.3204,0.00802
31.3254,0.00925
31.3304,0.00848
31.3354,0.00787
31.3404,0.00876
31.3454,0.0083
31.3504,0.0088
31.3554,0.00805
31.3604,0.00683
31.3654,0.00435
31.3704,0.00305
31.3754,0.00277
31.3804,0.00311
31.3854,0.00182
31.3904,9.91E-04
31.3954,0.00319
31.4004,0.00537
31.4054,0.0059
31.4104,0.00798
31.4154,0.00756
31.4204,0.00658
31.4254,0.00654
31.4304,0.00732
31.4354,0.00895
31.4404,0.00695
31.4454,0.00596
31.4504,0.00688
31.4554,0.00697
31.4604,0.00713
31.4654,0.00623
31.4704,0.00741
31.4754,0.0067
31.4804,0.00588
31.4854,0.00793
31.4904,0.00724
31.4954,0.00613
31.5004,0.00619
31.5054,0.00652
31.5104,0.00674
31.5154,0.0038
31.5204,0.00318
31.5254,0.00461
31.5304,0.00415
31.5354,0.00413
31.5404,0.00353
31.5454,0.00493
31.5504,0.00576
31.5554,0.0059
31.5604,0.00536
31.5654,0.00506
31.5704,0.00337
31.5754,0.00195
31.5804,0.00115
31.5854,0.0013
31.5904,2.12E-04
31.5954,0
31.6004,0.0014
31.6054,0.00378
31.6104,0.0047
31.6154,0.0056
31.6204,0.00637
31.6254,0.00817
31.6304,0.00928
31.6354,0.00804
31.6404,0.00648
31.6454,0.0058
31.6504,0.00571
31.6554,0.00625
31.6604,0.00494
31.6654,0.00404
31.6704,0.0031
31.6754,0.00298
31.6804,0.00344
31.6854,0.0038
31.6904,0.00387
31.6954,0.00464
31.7004,0.00318
31.7054,0.0026
31.7104,0.00203
31.7154,0.00191
31.7204,0.00212
31.7254,0.00122
31.7304,0.00142
31.7354,0.0018
31.7404,0.00172
31.7454,0.003
31.7504,0.00434
31.7554,0.00637
31.7604,0.0062
31.7654,0.00443
31.7704,0.00621
31.7754,0.00724
31.7804,0.00829
31.7854,0.00939
31.7904,0.00881
31.7954,0.00911
31.8004,0.00923
31.8054,0.00949
31.8104,0.01089
31.8154,0.01046
31.8204,0.00914
31.8254,0.00782
31.8304,0.00625
31.8354,0.00651
31.8404,0.0069
31.8454,0.00461
31.8504,0.00444
31.8554,0.00414
31.8604,0.00329
31.8654,0.00348
31.8704,0.00543
31.8754,0.00508
31.8804,0.00351
31.8854,0.00291
31.8904,0.00551
31.8954,0.00729
31.9004,0.00696
31.9054,0.00678
31.9104,0.00636
31.9154,0.00504
31.9204,0.0049
31.9254,0.00504
31.9304,0.00505
31.9354,0.00453
31.9404,0.00343
31.9454,0.00348
31.9504,0.00501
31.9554,0.0076
31.9604,0.00762
31.9654,0.00711
31.9704,0.00952
31.9754,0.00997
31.9804,0.00922
31.9854,0.01055
31.9904,0.01107
31.9954,0.01144
32.0004,0.00991
32.0054,0.00897
32.0104,0.01026
32.0154,0.00847
32.0204,0.00781
32.0254,0.00714
32.0304,0.0037
32.0354,0.00419
32.0404,0.00338
32.0454,0.00351
32.0504,0.00583
32.0554,0.00798
32.0604,0.00917
32.0654,0.01099
32.0704,0.0133
32.0754,0.01667
32.0804,0.01525
32.0854,0.01619
32.0904,0.01776
32.0954,0.01738
32.1004,0.01584
32.1054,0.01699
32.1104,0.01578
32.1154,0.01413
32.1204,0.0148
32.1254,0.01593
32.1304,0.01419
32.1354,0.0119
32.1404,0.01046
32.1454,0.00904
32.1504,0.00867
32.1554,0.00905
32.1604,0.00831
32.1654,0.00673
32.1704,0.00766
32.1754,0.0089
32.1804,0.00879
32.1854,0.00836
32.1904,0.00924
32.1954,0.00936
32.2004,0.00923
32.2054,0.01038
32.2104,0.01077
32.2154,0.01084
32.2204,0.01117
32.2254,0.01178
32.2304,0.01313
32.2354,0.01282
32.2404,0.01162
32.2454,0.01228
32.2504,0.01384
32.2554,0.01637
32.2604,0.01669
32.2654,0.01613
32.2704,0.01625
32.2754,0.01526
32.2804,0.01589
32.2854,0.01679
32.2904,0.01495
32.2954,0.01343
32.3004,0.01012
32.3054,0.00885
32.3104,0.00927
32.3154,0.00828
32.3204,0.00842
32.3254,0.00778
32.3304,0.00691
32.3354,0.00758
32.3404,0.00806
32.3454,0.00821
32.3504,0.00752
32.3554,0.00785
32.3604,0.00935
32.3654,0.00831
32.3704,0.00837
32.3754,0.00921
32.3804,0.00889
32.3854,0.00849
32.3904,0.00907
32.3954,0.01039
32.4004,0.01064
32.4054,0.01014
32.4104,0.00917
32.4154,0.01071
32.4204,0.01058
32.4254,0.01094
32.4304,0.00916
32.4354,0.00858
32.4404,0.00818
32.4454,0.00791
32.4504,0.00848
32.4554,0.01214
32.4604,0.01114
32.4654,0.01062
32.4704,0.01183
32.4754,0.01387
32.4804,0.01361
32.4854,0.01372
32.4904,0.01342
32.4954,0.01333
32.5004,0.01226
32.5054,0.01291
32.5104,0.01409
32.5154,0.0142
32.5204,0.0141
32.5254,0.01533
32.5304,0.01583
32.5354,0.01431
32.5404,0.01556
32.5454,0.01782
32.5504,0.01783
32.5554,0.01752
32.5604,0.0168
32.5654,0.01617
32.5704,0.01499
32.5754,0.01558
32.5804,0.01672
32.5854,0.01479
32.5904,0.01112
32.5954,0.01102
32.6004,0.01094
32.6054,0.01105
32.6104,0.01171
32.6154,0.013
32.6204,0.01314
32.6254,0.0122
32.6304,0.01242
32.6354,0.01531
32.6404,0.01537
32.6454,0.01523
32.6504,0.01505
32.6554,0.01621
32.6604,0.01475
32.6654,0.01221
32.6704,0.01407
32.6754,0.01637
32.6804,0.01472
32.6854,0.01526
32.6904,0.01379
32.6954,0.01418
32.7004,0.01336
32.7054,0.01537
32.7104,0.01651
32.7154,0.01491
32.7204,0.0123
32.7254,0.01144
32.7304,0.00903
32.7354,0.01051
32.7404,0.00969
32.7454,0.00967
32.7504,0.00864
32.7554,0.00811
32.7604,0.0079
32.7654,0.00786
32.7704,0.00868
32.7754,0.00954
32.7804,0.00888
32.7854,0.00939
32.7904,0.00775
32.7954,0.00843
32.8004,0.01072
32.8054,0.01324
32.8104,0.01598
32.8154,0.0175
32.8204,0.01784
32.8254,0.01833
32.8304,0.01677
32.8354,0.01788
32.8404,0.01776
32.8454,0.01668
32.8504,0.01584
32.8554,0.01344
32.8604,0.01144
32.8654,0.01167
32.8704,0.01198
32.8754,0.01226
32.8804,0.01169
32.8854,0.01099
32.8904,0.01096
32.8954,0.00924
32.9004,0.01114
32.9054,0.01098
32.9104,0.01119
32.9154,0.01002
32.9204,0.01083
32.9254,0.01087
32.9304,0.00896
32.9354,0.00736
32.9404,0.00739
32.9454,0.00678
32.9504,0.00764
32.9554,0.00728
32.9604,0.00748
32.9654,0.00745
32.9704,0.00781
32.9754,0.00935
32.9804,0.01052
32.9854,0.01212
32.9904,0.00985
32.9954,0.01006
33.0004,0.00784
33.0054,0.00726
33.0104,0.00712
33.0154,0.00755
33.0204,0.00737
33.0254,0.00707
33.0304,0.0055
33.0354,0.00552
33.0404,0.00615
33.0454,0.00785
33.0504,0.00827
33.0554,0.00856
33.0604,0.00682
33.0654,0.00735
33.0704,0.00705
33.0754,0.00741
33.0804,0.00768
33.0854,0.00566
33.0904,0.00533
33.0954,0.00651
33.1004,0.00613
33.1054,0.0065
33.1104,0.0067
33.1154,0.00732
33.1204,0.00836
33.1254,0.00955
33.1304,0.01105
33.1354,0.0111
33.1404,0.0096
33.1454,0.01083
33.1504,0.01257
33.1554,0.01268
33.1604,0.01137
33.1654,0.00857
33.1704,0.00769
33.1754,0.00564
33.1804,0.00662
33.1854,0.00914
33.1904,0.00832
33.1954,0.00798
33.2004,0.00715
33.2054,0.00726
33.2104,0.00969
33.2154,0.01194
33.2204,0.01315
33.2254,0.01254
33.2304,0.01006
33.2354,0.00984
33.2404,0.00898
33.2454,0.00839
33.2504,0.00917
33.2554,0.00756
33.2604,0.00318
33.2654,0.00202
33.2704,0.00125
33.2754,2.88E-04
33.2804,0
33.2854,0.00146
33.2904,0.00253
33.2954,0.00494
33.3004,0.00643
33.3054,0.00818
33.3104,0.00806
33.3154,0.00797
33.3204,0.0098
33.3254,0.00933
33.3304,0.00774
33.3354,0.00711
33.3404,0.00443
33.3454,0.00413
33.3504,0.00563
33.3554,0.00784
33.3604,0.00644
33.3654,0.00481
33.3704,0.00705
33.3754,0.00646
33.3804,0.00595
33.3854,0.00666
33.3904,0.00831
33.3954,0.00724
33.4004,0.00681
33.4054,0.00889
33.4104,0.00878
33.4154,0.00697
33.4204,0.00848
33.4254,0.00829
33.4304,0.00628
33.4354,0.00399
33.4404,0.00507
33.4454,0.00458
33.4504,0.00556
33.4554,0.00737
33.4604,0.00873
33.4654,0.00796
33.4704,0.00892
33.4754,0.01034
33.4804,0.00944
33.4854,0.01006
33.4904,0.01138
33.4954,0.01054
33.5004,0.00992
33.5054,0.00765
33.5104,0.00705
33.5154,0.00835
33.5204,0.00771
33.5254,0.00976
33.5304,0.00865
33.5354,0.00837
33.5404,0.00774
33.5454,0.00668
33.5504,0.00797
33.5554,0.00799
33.5604,0.00583
33.5654,0.00662
33.5704,0.00589
33.5754,0.00587
33.5804,0.00477
33.5854,0.00721
33.5904,0.00887
33.5954,0.00706
33.6004,0.00799
33.6054,0.0086
33.6104,0.00686
33.6154,0.0061
33.6204,0.00586
33.6254,0.00456
33.6304,0.00244
33.6354,0.00258
33.6404,0.00588
33.6454,0.00576
33.6504,0.00562
33.6554,0.00622
33.6604,0.00662
33.6654,0.00535
33.6704,0.00767
33.6754,0.00896
33.6804,0.00695
33.6854,0.00441
33.6904,0.00376
33.6954,0.00549
33.7004,0.00654
33.7054,0.00597
33.7104,0.00761
33.7154,0.00618
33.7204,0.00457
33.7254,0.00465
33.7304,0.00348
33.7354,0.00394
33.7404,0.00301
33.7454,0.00304
33.7504,0.00323
33.7554,0.00223
33.7604,0.00229
33.7654,0.00159
33.7704,0.00314
33.7754,0.00398
33.7804,0.00323
33.7854,0.00345
33.7904,0.00342
33.7954,0.0045
33.8004,0.00605
33.8054,0.00602
33.8104,0.00647
33.8154,0.00705
33.8204,0.00884
33.8254,0.008
33.8304,0.00739
33.8354,0.00726
33.8404,0.00694
33.8454,0.00677
33.8504,0.006
33.8554,0.00605
33.8604,0.00452
33.8654,0.00396
33.8704,0.00432
33.8754,0.0044
33.8804,0.0029
33.8854,0.00212
33.8904,9.85E-04
33.8954,0.00304
33.9004,0.00337
33.9054,0.00258
33.9104,8.14E-04
33.9154,0.00232
33.9204,0.00244
33.9254,0.00343
33.9304,0.00472
33.9354,0.00569
33.9404,0.00495
33.9454,0.00434
33.9504,0.00622
33.9554,0.00778
33.9604,0.00708
33.9654,0.00583
33.9704,0.00694
33.9754,0.00642
33.9804,0.0059
33.9854,0.00571
33.9904,0.00634
33.9954,0.00508
34.0004,0.00603
34.0054,0.00715
34.0104,0.00733
34.0154,0.00633
34.0204,0.00646
34.0254,0.00677
34.0304,0.0061
34.0354,0.00692
34.0404,0.00785
34.0454,0.00716
34.0504,0.00601
34.0554,0.00682
34.0604,0.00548
34.0654,0.00424
34.0704,0.00237
34.0754,0.00406
34.0804,0.00398
34.0854,0.00487
34.0904,0.00562
34.0954,0.0068
34.1004,0.00701
34.1054,0.00768
34.1104,0.0088
34.1154,0.0089
34.1204,0.00629
34.1254,0.00481
34.1304,0.00247
34.1354,0.00254
34.1404,0.00173
34.1454,7.75E-04
34.1504,9.96E-04
34.1554,0.00188
34.1604,0.00309
34.1654,0.00469
34.1704,0.00723
34.1754,0.01005
34.1804,0.00811
34.1854,0.007
34.1904,0.00867
34.1954,0.01168
34.2004,0.01205
34.2054,0.01367
34.2104,0.01537
34.2154,0.01546
34.2204,0.015
34.2254,0.01783
34.2304,0.0204
34.2354,0.01865
34.2404,0.01497
34.2454,0.01575
34.2504,0.01622
34.2554,0.01685
34.2604,0.015
34.2654,0.01424
34.2704,0.0152
34.2754,0.01505
34.2804,0.01788
34.2854,0.0216
34.2904,0.02068
34.2954,0.02091
34.3004,0.02053
34.3054,0.02094
34.3104,0.0199
34.3154,0.01837
34.3204,0.01872
34.3254,0.01792
34.3304,0.01633
34.3354,0.01568
34.3404,0.01375
34.3454,0.01386
34.3504,0.01497
34.3554,0.01729
34.3604,0.01653
34.3654,0.01394
34.3704,0.01413
34.3754,0.01526
34.3804,0.01789
34.3854,0.01969
34.3904,0.02017
34.3954,0.01993
34.4004,0.0203
34.4054,0.02168
34.4104,0.02465
34.4154,0.02564
34.4204,0.02632
34.4254,0.0257
34.4304,0.02609
34.4354,0.02427
34.4404,0.02368
34.4454,0.02274
34.4504,0.02213
34.4554,0.02166
34.4604,0.01996
34.4654,0.01748
34.4704,0.01484
34.4754,0.01245
34.4804,0.01204
34.4854,0.01409
34.4904,0.01511
34.4954,0.01492
34.5004,0.01388
34.5054,0.01405
34.5104,0.01327
34.5154,0.01497
34.5204,0.01604
34.5254,0.01616
34.5304,0.01464
34.5354,0.01339
34.5404,0.01287
34.5454,0.01402
34.5504,0.01406
34.5554,0.01521
34.5604,0.01374
34.5654,0.01243
34.5704,0.01313
34.5754,0.01427
34.5804,0.01366
34.5854,0.01534
34.5904,0.01506
34.5954,0.01524
34.6004,0.01617
34.6054,0.01612
34.6104,0.01624
34.6154,0.01478
34.6204,0.01116
34.6254,0.01138
34.6304,0.00868
34.6354,0.00713
34.6404,0.0075
34.6454,0.00743
34.6504,0.00693
34.6554,0.00628
34.6604,0.00457
34.6654,0.0055
34.6704,0.00496
34.6754,0.00386
34.6804,0.00329
34.6854,0.00228
34.6904,0
34.6954,6.56E-04
34.7004,0.00348
34.7054,0.00519
34.7104,0.0034
34.7154,0.00273
34.7204,0.00485
34.7254,0.00701
34.7304,0.00711
34.7354,0.00794
34.7404,0.0071
34.7454,0.00561
34.7504,0.00687
34.7554,0.01008
34.7604,0.01157
34.7654,0.01165
34.7704,0.00966
34.7754,0.00871
34.7804,0.00948
34.7854,0.01098
34.7904,0.01074
34.7954,0.01032
34.8004,0.00916
34.8054,0.00817
34.8104,0.00733
34.8154,0.00755
34.8204,0.00828
34.8254,0.00836
34.8304,0.00809
34.8354,0.00797
34.8404,0.00786
34.8454,0.00849
34.8504,0.00891
34.8554,0.01018
34.8604,0.00983
34.8654,0.00918
34.8704,0.00985
34.8754,0.00981
34.8804,0.00969
34.8854,0.01003
34.8904,0.01057
34.8954,0.01071
34.9004,0.01213
34.9054,0.01436
34.9104,0.01347
34.9154,0.0122
34.9204,0.01128
34.9254,0.00931
34.9304,0.00864
34.9354,0.00842
34.9404,0.00917
34.9454,0.00787
34.9504,0.00705
34.9554,0.00887
34.9604,0.00955
34.9654,0.00845
34.9704,0.01027
34.9754,0.00971
34.9804,0.00926
34.9854,0.0088
34.9904,0.00791
34.9954,0.00889
35.0004,0.00996
35.0054,0.00917
35.0104,0.01052
35.0154,0.01182
35.0204,0.01365
35.0254,0.01296
35.0304,0.01247
35.0354,0.01457
35.0404,0.01579
35.0454,0.01626
35.0504,0.01732
35.0554,0.01879
35.0604,0.01692
35.0654,0.01594
35.0704,0.01774
35.0754,0.01924
35.0804,0.01814
35.0854,0.0173
35.0904,0.01703
35.0954,0.0169
35.1004,0.01681
35.1054,0.01913
35.1104,0.01906
35.1154,0.01944
35.1204,0.01978
35.1254,0.02165
35.1304,0.02263
35.1354,0.02253
35.1404,0.02434
35.1454,0.0266
35.1504,0.02843
35.1554,0.03051
35.1604,0.03066
35.1654,0.03193
35.1704,0.03446
35.1754,0.03617
35.1804,0.03811
35.1854,0.04025
35.1904,0.04153
35.1954,0.04377
35.2004,0.04672
35.2054,0.05042
35.2104,0.05317
35.2154,0.05384
35.2204,0.05411
35.2254,0.05612
35.2304,0.05646
35.2354,0.05748
35.2404,0.05826
35.2454,0.05759
35.2504,0.05715
35.2554,0.05732
35.2604,0.05447
35.2654,0.05411
35.2704,0.05384
35.2754,0.05436
35.2804,0.05541
35.2854,0.05388
35.2904,0.05612
35.2954,0.05689
35.3004,0.05616
35.3054,0.05956
35.3104,0.0607
35.3154,0.06198
35.3204,0.06424
35.3254,0.06279
35.3304,0.06341
35.3354,0.06047
35.3404,0.05851
35.3454,0.0585
35.3504,0.05835
35.3554,0.05848
35.3604,0.05898
35.3654,0.05693
35.3704,0.05722
35.3754,0.05627
35.3804,0.05612
35.3854,0.05678
35.3904,0.0565
35.3954,0.0559
35.4004,0.05511
35.4054,0.05174
35.4104,0.04985
35.4154,0.04904
35.4204,0.04875
35.4254,0.0489
35.4304,0.04942
35.4354,0.04763
35.4404,0.04552
35.4454,0.04455
35.4504,0.04338
35.4554,0.04276
35.4604,0.04074
35.4654,0.03902
35.4704,0.03976
35.4754,0.0394
35.4804,0.03967
35.4854,0.039
35.4904,0.03888
35.4954,0.04139
35.5004,0.04348
35.5054,0.04534
35.5104,0.04492
35.5154,0.04278
35.5204,0.04251
35.5254,0.0435
35.5304,0.04357
35.5354,0.04337
35.5404,0.04289
35.5454,0.04195
35.5504,0.04193
35.5554,0.04387
35.5604,0.04635
35.5654,0.04641
35.5704,0.04673
35.5754,0.0478
35.5804,0.04709
35.5854,0.04547
35.5904,0.0446
35.5954,0.04292
35.6004,0.04395
35.6054,0.04371
35.6104,0.04348
35.6154,0.04353
35.6204,0.04264
35.6254,0.04364
35.6304,0.0453
35.6354,0.04587
35.6404,0.04745
35.6454,0.04773
35.6504,0.04706
35.6554,0.04722
35.6604,0.04602
35.6654,0.04579
35.6704,0.04576
35.6754,0.04525
35.6804,0.04508
35.6854,0.04525
35.6904,0.04431
35.6954,0.04387
35.7004,0.04444
35.7054,0.04608
35.7104,0.04598
35.7154,0.04575
35.7204,0.04403
35.7254,0.04291
35.7304,0.0431
35.7354,0.04162
35.7404,0.04132
35.7454,0.0397
35.7504,0.03753
35.7554,0.03765
35.7604,0.03574
35.7654,0.03497
35.7704,0.03443
35.7754,0.0316
35.7804,0.03002
35.7854,0.02763
35.7904,0.02538
35.7954,0.02484
35.8004,0.02475
35.8054,0.02434
35.8104,0.0245
35.8154,0.02283
35.8204,0.02235
35.8254,0.02219
35.8304,0.02235
35.8354,0.02271
35.8404,0.02132
35.8454,0.02185
35.8504,0.02276
35.8554,0.02248
35.8604,0.02308
35.8654,0.02293
35.8704,0.02248
35.8754,0.02201
35.8804,0.0204
35.8854,0.02092
35.8904,0.01883
35.8954,0.01829
35.9004,0.01937
35.9054,0.01857
35.9104,0.01766
35.9154,0.01757
35.9204,0.01741
35.9254,0.01742
35.9304,0.01594
35.9354,0.01479
35.9404,0.0122
35.9454,0.01002
35.9504,0.00997
35.9554,0.01208
35.9604,0.01097
35.9654,0.00997
35.9704,0.01076
35.9754,0.01066
35.9804,0.00896
35.9854,0.01019
35.9904,0.01143
35.9954,0.01188
36.0004,0.0099
36.0054,0.01011
36.0104,0.01048
36.0154,0.0097
36.0204,0.01044
36.0254,0.0123
36.0304,0.01242
36.0354,0.01208
36.0404,0.01125
36.0454,0.0105
36.0504,0.01063
36.0554,0.0107
36.0604,0.00861
36.0654,0.00769
36.0704,0.0073
36.0754,0.00648
36.0804,0.0031
36.0854,0.00241
36.0904,0.00116
36.0954,4.03E-04
36.1004,0.00193
36.1054,0.00308
36.1104,0.00291
36.1154,0.00328
36.1204,0.00355
36.1254,0.00546
36.1304,0.00523
36.1354,0.00603
36.1404,0.00657
36.1454,0.00531
36.1504,0.00555
36.1554,0.00729
36.1604,0.00644
36.1654,0.00528
36.1704,0.00414
36.1754,0.00357
36.1804,0.00374
36.1854,0.00484
36.1904,0.00438
36.1954,0.00383
36.2004,0.00313
36.2054,0.00149
36.2104,0.00211
36.2154,0.0039
36.2204,0.00528
36.2254,0.00542
36.2304,0.00376
36.2354,0.003
36.2404,0.00352
36.2454,0.00234
36.2504,0.00473
36.2554,0.00613
36.2604,0.00532
36.2654,0.0059
36.2704,0.00621
36.2754,0.00633
36.2804,0.00502
36.2854,0.00503
36.2904,0.00511
36.2954,0.00324
36.3004,0.00174
36.3054,8.97E-04
36.3104,1.83E-04
36.3154,0
36.3204,0.00175
36.3254,0.0038
36.3304,0.00344
36.3354,0.00507
36.3404,0.00549
36.3454,0.00515
36.3504,0.00691
36.3554,0.00697
36.3604,0.00516
36.3654,0.00386
36.3704,0.00434
36.3754,0.00426
36.3804,0.00198
36.3854,0.00294
36.3904,0.00349
36.3954,0.00429
36.4004,0.00543
36.4054,0.00745
36.4104,0.00758
36.4154,0.00728
36.4204,0.00855
36.4254,0.00844
36.4304,0.00857
36.4354,0.00903
36.4404,0.0071
36.4454,0.00529
36.4504,0.00437
36.4554,0.00272
36.4604,0.00222
36.4654,0.00238
36.4704,0.00331
36.4754,0.00177
36.4804,0
36.4854,0.00211
36.4904,0.00422
36.4954,0.00537
36.5004,0.00648
36.5054,0.00624
36.5104,0.0047
36.5154,0.00443
36.5204,0.00477
36.5254,0.0055
36.5304,0.00303
36.5354,0.00173
36.5404,0.00178
36.5454,0.00229
36.5504,0.00316
36.5554,0.00579
36.5604,0.0061
36.5654,0.00758
36.5704,0.00911
36.5754,0.01019
36.5804,0.01034
36.5854,0.00979
36.5904,0.01016
36.5954,0.01052
36.6004,0.00936
36.6054,0.00783
36.6104,0.0066
36.6154,0.0074
36.6204,0.00902
36.6254,0.01035
36.6304,0.01078
36.6354,0.00976
36.6404,0.00785
36.6454,0.00784
36.6504,0.00902
36.6554,0.00938
36.6604,0.00812
36.6654,0.00656
36.6704,0.00671
36.6754,0.00661
36.6804,0.0078
36.6854,0.01019
36.6904,0.00957
36.6954,0.01023
36.7004,0.0111
36.7054,0.01189
36.7104,0.01257
36.7154,0.01108
36.7204,0.01135
36.7254,0.01054
36.7304,0.01107
36.7354,0.01101
36.7404,0.00958
36.7454,0.00885
36.7504,0.00861
36.7554,0.00784
36.7604,0.00652
36.7654,0.00466
36.7704,0.0055
36.7754,0.00402
36.7804,0.00495
36.7854,0.00763
36.7904,0.00792
36.7954,0.00712
36.8004,0.00743
36.8054,0.00975
36.8104,0.01124
36.8154,0.0109
36.8204,0.01165
36.8254,0.01099
36.8304,0.00912
36.8354,0.00937
36.8404,0.01028
36.8454,0.00896
36.8504,0.00814
36.8554,0.00685
36.8604,0.00577
36.8654,0.00481
36.8704,0.00564
36.8754,0.00423
36.8804,0.00256
36.8854,0.00349
36.8904,0.00549
36.8954,0.00629
36.9004,0.00889
36.9054,0.0096
36.9104,0.00803
36.9154,0.00729
36.9204,0.00856
36.9254,0.00959
36.9304,0.00806
36.9354,0.00641
36.9404,0.00641
36.9454,0.00729
36.9504,0.00747
36.9554,0.01013
36.9604,0.01043
36.9654,0.00981
36.9704,0.01003
36.9754,0.0098
36.9804,0.01004
36.9854,0.00943
36.9904,0.00531
36.9954,0.00322
37.0004,0.00138
37.0054,9.42E-04
37.0104,4.13E-04
37.0154,5.59E-04
37.0204,0.00113
37.0254,0.00114
37.0304,6.78E-04
37.0354,0.00328
37.0404,0.00648
37.0454,0.00867
37.0504,0.01032
37.0554,0.01234
37.0604,0.01325
37.0654,0.0137
37.0704,0.01409
37.0754,0.01504
37.0804,0.01396
37.0854,0.013
37.0904,0.0115
37.0954,0.00867
37.1004,0.00838
37.1054,0.00629
37.1104,0.00409
37.1154,0.00385
37.1204,0.00375
37.1254,0.00546
37.1304,0.00602
37.1354,0.00702
37.1404,0.00883
37.1454,0.01031
37.1504,0.01069
37.1554,0.01122
37.1604,0.00868
37.1654,0.00665
37.1704,0.00478
37.1754,0.00412
37.1804,0.00217
37.1854,0.00273
37.1904,0.00141
37.1954,0.00271
37.2004,0.00409
37.2054,0.0064
37.2104,0.00709
37.2154,0.00859
37.2204,0.0084
37.2254,0.00931
37.2304,0.00614
37.2354,0.00441
37.2404,0.00442
37.2454,0.00517
37.2504,0.00563
37.2554,0.00591
37.2604,0.0036
37.2654,0.00255
37.2704,0.0064
37.2754,0.00904
37.2804,0.01068
37.2854,0.01149
37.2904,0.01034
37.2954,0.01113
37.3004,0.01202
37.3054,0.0115
37.3104,0.01213
37.3154,0.00973
37.3204,0.00986
37.3254,0.00834
37.3304,0.00482
37.3354,0.00504
37.3404,0.00422
37.3454,0.00523
37.3504,0.00856
37.3554,0.00995
37.3604,0.00963
37.3654,0.00779
37.3704,0.00856
37.3754,0.00887
37.3804,0.00711
37.3854,0.00739
37.3904,0.00604
37.3954,0.00391
37.4004,0.00302
37.4054,0
37.4104,8.77E-05
37.4154,0.00131
37.4204,0.00181
37.4254,0.00336
37.4304,0.00351
37.4354,0.00383
37.4404,0.00514
37.4454,0.00554
37.4504,0.00709
37.4554,0.00834
37.4604,0.00729
37.4654,0.00847
37.4704,0.00861
37.4754,0.00885
37.4804,0.00646
37.4854,0.00535
37.4904,0.00499
37.4954,0.00668
37.5004,0.00729
37.5054,0.00709
37.5104,0.00752
37.5154,0.00715
37.5204,0.00673
37.5254,0.0092
37.5304,0.00972
37.5354,0.01031
37.5404,0.00957
37.5454,0.00893
37.5504,0.0093
37.5554,0.00917
37.5604,0.0083
37.5654,0.00901
37.5704,0.00977
37.5754,0.0106
37.5804,0.00885
37.5854,0.00875
37.5904,0.00834
37.5954,0.00877
37.6004,0.00806
37.6054,0.0086
37.6104,0.00666
37.6154,0.00466
37.6204,0.00374
37.6254,0.00405
37.6304,0.00352
37.6354,0.00592
37.6404,0.00811
37.6454,0.00901
37.6504,0.01006
37.6554,0.01117
37.6604,0.01141
37.6654,0.01201
37.6704,0.01362
37.6754,0.01387
37.6804,0.01189
37.6854,0.00846
37.6904,0.00867
37.6954,0.0094
37.7004,0.00873
37.7054,0.00756
37.7104,0.00604
37.7154,0.00517
37.7204,0.00562
37.7254,0.00721
37.7304,0.00808
37.7354,0.00747
37.7404,0.00548
37.7454,0.00674
37.7504,0.0088
37.7554,0.00928
37.7604,0.00753
37.7654,0.00605
37.7704,0.00406
37.7754,0.0033
37.7804,0.00212
37.7854,0.00285
37.7904,0.00258
37.7954,0.00234
37.8004,0.00421
37.8054,0.00639
37.8104,0.00646
37.8154,0.00585
37.8204,0.00723
37.8254,0.00873
37.8304,0.00949
37.8354,0.0095
37.8404,0.00925
37.8454,0.00859
37.8504,0.00883
37.8554,0.00968
37.8604,0.00962
37.8654,0.00841
37.8704,0.00718
37.8754,0.00675
37.8804,0.00717
37.8854,0.00609
37.8904,0.0053
37.8954,0.00522
37.9004,0.00599
37.9054,0.00652
37.9104,0.00539
37.9154,0.00517
37.9204,0.00458
37.9254,0.00297
37.9304,0.00273
37.9354,0.00245
37.9404,0.00103
37.9454,0
37.9504,0
37.9554,2.21E-04
37.9604,0.00168
37.9654,0.00211
37.9704,0.00295
37.9754,0.00366
37.9804,0.0031
37.9854,0.00421
37.9904,0.00464
37.9954,0.00527
38.0004,0.00684
38.0054,0.00452
38.0104,0.00404
38.0154,0.00434
38.0204,0.00559
38.0254,0.00463
38.0304,0.00389
38.0354,0.00448
38.0404,0.0032
38.0454,0.00221
38.0504,0.00451
38.0554,0.00564
38.0604,0.00433
38.0654,0.00172
38.0704,0.00342
38.0754,0.00467
38.0804,0.0042
38.0854,0.00579
38.0904,0.00578
38.0954,0.00538
38.1004,0.00201
38.1054,0.00215
38.1104,0.00411
38.1154,0.00449
38.1204,0.00559
38.1254,0.00787
38.1304,0.00688
38.1354,0.00792
38.1404,0.00898
38.1454,0.0113
38.1504,0.0116
38.1554,0.01205
38.1604,0.01258
38.1654,0.01005
38.1704,0.00742
38.1754,0.00741
38.1804,0.007
38.1854,0.00752
38.1904,0.00986
38.1954,0.01196
38.2004,0.01066
38.2054,0.01075
38.2104,0.01288
38.2154,0.01418
38.2204,0.01639
38.2254,0.01753
38.2304,0.01688
38.2354,0.01523
38.2404,0.0138
38.2454,0.01624
38.2504,0.01854
38.2554,0.01754
38.2604,0.01615
38.2654,0.01514
38.2704,0.0174
38.2754,0.01762
38.2804,0.01772
38.2854,0.01676
38.2904,0.0156
38.2954,0.01329
38.3004,0.01493
38.3054,0.01588
38.3104,0.0161
38.3154,0.01463
38.3204,0.01448
38.3254,0.01515
38.3304,0.01893
38.3354,0.022
38.3404,0.02402
38.3454,0.02416
38.3504,0.02704
38.3554,0.03009
38.3604,0.03151
38.3654,0.03242
38.3704,0.03567
38.3754,0.0359
38.3804,0.03641
38.3854,0.0386
38.3904,0.0409
38.3954,0.04242
38.4004,0.04565
38.4054,0.04919
38.4104,0.05427
38.4154,0.06035
38.4204,0.07004
38.4254,0.07997
38.4304,0.09226
38.4354,0.10705
38.4404,0.12635
38.4454,0.14602
38.4504,0.17049
38.4554,0.2019
38.4604,0.23379
38.4654,0.27015
38.4704,0.3155
38.4754,0.36343
38.4804,0.41747
38.4854,0.47499
38.4904,0.53668
38.4954,0.6028
38.5004,0.66858
38.5054,0.7371
38.5104,0.80487
38.5154,0.86582
38.5204,0.92076
38.5254,0.96251
38.5304,0.9893
38.5354,1
38.5404,0.99083
38.5454,0.9626
38.5504,0.91541
38.5554,0.85146
38.5604,0.77685
38.5654,0.69342
38.5704,0.61043
38.5754,0.52968
38.5804,0.45421
38.5854,0.38752
38.5904,0.33003
38.5954,0.28329
38.6004,0.2467
38.6054,0.21349
38.6104,0.18813
38.6154,0.16424
38.6204,0.14419
38.6254,0.12627
38.6304,0.11286
38.6354,0.10241
38.6404,0.09004
38.6454,0.07965
38.6504,0.07423
38.6554,0.06905
38.6604,0.06625
38.6654,0.06465
38.6704,0.06528
38.6754,0.06218
38.6804,0.06037
38.6854,0.06108
38.6904,0.06097
38.6954,0.05981
38.7004,0.05829
38.7054,0.05842
38.7104,0.05686
38.7154,0.05592
38.7204,0.0565
38.7254,0.05466
38.7304,0.05363
38.7354,0.05343
38.7404,0.05345
38.7454,0.05439
38.7504,0.0552
38.7554,0.05639
38.7604,0.05679
38.7654,0.05574
38.7704,0.057
38.7754,0.0586
38.7804,0.05914
38.7854,0.06079
38.7904,0.06366
38.7954,0.06526
38.8004,0.06887
38.8054,0.07251
38.8104,0.07423
38.8154,0.07744
38.8204,0.08003
38.8254,0.0827
38.8304,0.08325
38.8354,0.08369
38.8404,0.08458
38.8454,0.08388
38.8504,0.08383
38.8554,0.08817
38.8604,0.08945
38.8654,0.0916
38.8704,0.09461
38.8754,0.09899
38.8804,0.10197
38.8854,0.10795
38.8904,0.11323
38.8954,0.11864
38.9004,0.12607
38.9054,0.13365
38.9104,0.13883
38.9154,0.14419
38.9204,0.15309
38.9254,0.16383
38.9304,0.17166
38.9354,0.18049
38.9404,0.19097
38.9454,0.19803
38.9504,0.20733
38.9554,0.21869
38.9604,0.22884
38.9654,0.23589
38.9704,0.2431
38.9754,0.25003
38.9804,0.25969
38.9854,0.26805
38.9904,0.2766
38.9954,0.2847
39.0004,0.29164
39.0054,0.29538
39.0104,0.29894
39.0154,0.30256
39.0204,0.3066
39.0254,0.30678
39.0304,0.30426
39.0354,0.30094
39.0404,0.2944
39.0454,0.28905
39.0504,0.28558
39.0554,0.27843
39.0604,0.26646
39.0654,0.2561
39.0704,0.24547
39.0754,0.23484
39.0804,0.22389
39.0854,0.21527
39.0904,0.20341
39.0954,0.19114
39.1004,0.183
39.1054,0.175
39.1104,0.16441
39.1154,0.15516
39.1204,0.14511
39.1254,0.13581
39.1304,0.12602
39.1354,0.11809
39.1404,0.11078
39.1454,0.10103
39.1504,0.09561
39.1554,0.08917
39.1604,0.08221
39.1654,0.0778
39.1704,0.07352
39.1754,0.0686
39.1804,0.06479
39.1854,0.06179
39.1904,0.0574
39.1954,0.05251
39.2004,0.04951
39.2054,0.04606
39.2104,0.04321
39.2154,0.04046
39.2204,0.03834
39.2254,0.03546
39.2304,0.0329
39.2354,0.03355
39.2404,0.03327
39.2454,0.03315
39.2504,0.03436
39.2554,0.03465
39.2604,0.03281
39.2654,0.03081
39.2704,0.02977
39.2754,0.02911
39.2804,0.02694
39.2854,0.0261
39.2904,0.02324
39.2954,0.02013
39.3004,0.0174
39.3054,0.01694
39.3104,0.01604
39.3154,0.01492
39.3204,0.01362
39.3254,0.01338
39.3304,0.01187
39.3354,0.01246
39.3404,0.01315
39.3454,0.01285
39.3504,0.01508
39.3554,0.01679
39.3604,0.01653
39.3654,0.01502
39.3704,0.01586
39.3754,0.01416
39.3804,0.01327
39.3854,0.01409
39.3904,0.01397
39.3954,0.01133
39.4004,0.00939
39.4054,0.00895
39.4104,0.01039
39.4154,0.00845
39.4204,0.00951
39.4254,0.00919
39.4304,0.00743
39.4354,0.00726
39.4404,0.00769
39.4454,0.00871
39.4504,0.00916
39.4554,0.00777
39.4604,0.00773
39.4654,0.00717
39.4704,0.00744
39.4754,0.00639
39.4804,0.00429
39.4854,0.00208
39.4904,8.75E-04
39.4954,4.52E-04
39.5004,9.40E-04
39.5054,1.63E-05
39.5104,6.20E-04
39.5154,0.00107
39.5204,0.00416
39.5254,0.00664
39.5304,0.00755
39.5354,0.00817
39.5404,0.00836
39.5454,0.00846
39.5504,0.00898
39.5554,0.00875
39.5604,0.00747
39.5654,0.00493
39.5704,0.00464
39.5754,0.00542
39.5804,0.00665
39.5854,0.00634
39.5904,0.00683
39.5954,0.00924
39.6004,0.00844
39.6054,0.01025
39.6104,0.00854
39.6154,0.00693
39.6204,0.00641
39.6254,0.00491
39.6304,0.00559
39.6354,0.00551
39.6404,0.00331
39.6454,0.00237
39.6504,0.00127
39.6554,0.00331
39.6604,0.00431
39.6654,0.00463
39.6704,0.00485
39.6754,0.00592
39.6804,0.00419
39.6854,0.00308
39.6904,0.0045
39.6954,0.00579
39.7004,0.00597
39.7054,0.00495
39.7104,0.00366
39.7154,0.00293
39.7204,0.00131
39.7254,0.00193
39.7304,0.00302
39.7354,0.00301
39.7404,0.00118
39.7454,0
39.7504,0.00261
39.7554,0.00457
39.7604,0.00404
39.7654,0.00333
39.7704,0.00511
39.7754,0.00576
39.7804,0.00466
39.7854,0.0057
39.7904,0.00582
39.7954,0.00273
39.8004,0.00106
39.8054,0.00196
39.8104,0.00158
39.8154,0.00109
39.8204,0.00347
39.8254,0.00642
39.8304,0.00541
39.8354,0.00487
39.8404,0.00581
39.8454,0.00697
39.8504,0.00758
39.8554,0.00936
39.8604,0.00694
39.8654,0.00448
39.8704,0.00466
39.8754,0.00546
39.8804,0.00634
39.8854,0.00722
39.8904,0.00607
39.8954,0.00653
39.9004,0.00717
39.9054,0.00838
39.9104,0.00784
39.9154,0.00583
39.9204,0.00555
39.9254,0.00608
39.9304,0.00561
39.9354,0.00684
39.9404,0.00573
39.9454,0.00407
39.9504,0.00392
39.9554,0.0038
39.9604,0.00256
39.9654,0.00162
39.9704,0.00203
39.9754,0
39.9804,4.53E-04
39.9854,0.00186
39.9904,0.00184
39.9954,0.00329
40.0004,0.00312
40.0054,0.00534
40.0104,0.00495
40.0154,0.0032
40.0204,0.00561
40.0254,0.00644
40.0304,0.00446
40.0354,0.00454
40.0404,0.0052
40.0454,0.00566
40.0504,0.00617
40.0554,0.00732
40.0604,0.00614
40.0654,0.00424
40.0704,0.00222
40.0754,0.00377
40.0804,0.00473
40.0854,0.00486
40.0904,0.0057
40.0954,0.00332
40.1004,0.00305
40.1054,0.00413
40.1104,0.00555
40.1154,0.00537
40.1204,0.00441
40.1254,0.00267
40.1304,9.16E-04
40.1354,5.40E-04
40.1404,0.0017
40.1454,0.00201
40.1504,0.0027
40.1554,0.00371
40.1604,0.002
40.1654,0.00193
40.1704,0.00397
40.1754,0.00384
40.1804,0.00239
40.1854,0.00242
40.1904,0.00431
40.1954,0.00456
40.2004,0.00382
40.2054,0.0075
40.2104,0.00712
40.2154,0.00736
40.2204,0.0073
40.2254,0.00844
40.2304,0.00706
40.2354,0.00612
40.2404,0.00576
40.2454,0.00678
40.2504,0.00674
40.2554,0.00864
40.2604,0.0059
40.2654,0.0057
40.2704,0.00608
40.2754,0.00806
40.2804,0.00831
40.2854,0.01026
40.2904,0.01006
40.2954,0.01003
40.3004,0.00917
40.3054,0.00773
40.3104,0.00609
40.3154,0.00572
40.3204,0.0044
40.3254,0.00427
40.3304,0.00293
40.3354,0.00175
40.3404,8.05E-04
40.3454,9.66E-04
40.3504,0.00373
40.3554,0.00619
40.3604,0.00467
40.3654,0.00397
40.3704,0.00368
40.3754,0.0048
40.3804,0.00586
40.3854,0.00662
40.3904,0.0065
40.3954,0.00778
40.4004,0.00806
40.4054,0.00924
40.4104,0.01023
40.4154,0.00984
40.4204,0.009
40.4254,0.00896
40.4304,0.00806
40.4354,0.00699
40.4404,0.00516
40.4454,0.00499
40.4504,0.00585
40.4554,0.00526
40.4604,0.00353
40.4654,0.00297
40.4704,0.00298
40.4754,0.00313
40.4804,0.00318
40.4854,0.00388
40.4904,0.00374
40.4954,0.00146
40.5004,0.00215
40.5054,0.00359
40.5104,0.00216
40.5154,0.00186
40.5204,0.00217
40.5254,0.0029
40.5304,0.00364
40.5354,0.00386
40.5404,0.00506
40.5454,0.00702
40.5504,0.00793
40.5554,0.01076
40.5604,0.00977
40.5654,0.00879
40.5704,0.0081
40.5754,0.0068
40.5804,0.00557
40.5854,0.00565
40.5904,0.00323
40.5954,0.00286
40.6004,8.06E-04
40.6054,5.15E-04
40.6104,9.10E-05
40.6154,6.77E-04
40.6204,5.19E-04
40.6254,4.56E-04
40.6304,0.00167
40.6354,0.00183
40.6404,6.92E-04
40.6454,0.00222
40.6504,0.00331
40.6554,0.0057
40.6604,0.00471
40.6654,0.00341
40.6704,0.00302
40.6754,0.00358
40.6804,0.00382
40.6854,0.00448
40.6904,0.00502
40.6954,0.0048
40.7004,0.00337
40.7054,0.00279
40.7104,0.00457
40.7154,0.00612
40.7204,0.00618
40.7254,0.00834
40.7304,0.00864
40.7354,0.00774
40.7404,0.00855
40.7454,0.00811
40.7504,0.0099
40.7554,0.01204
40.7604,0.01173
40.7654,0.00974
40.7704,0.00924
40.7754,0.00987
40.7804,0.00977
40.7854,0.01074
40.7904,0.01224
40.7954,0.01202
40.8004,0.00852
40.8054,0.00778
40.8104,0.00827
40.8154,0.00647
40.8204,0.00699
40.8254,0.00574
40.8304,0.00373
40.8354,0.00186
40.8404,7.04E-04
40.8454,0.00266
40.8504,0.00568
40.8554,0.0059
40.8604,0.00526
40.8654,0.00257
40.8704,0.00594
40.8754,0.00779
40.8804,0.00835
40.8854,0.00929
40.8904,0.00946
40.8954,0.00758
40.9004,0.00836
40.9054,0.01072
40.9104,0.01201
40.9154,0.00983
40.9204,0.00776
40.9254,0.00847
40.9304,0.00847
40.9354,0.00881
40.9404,0.00752
40.9454,0.00682
40.9504,0.00525
40.9554,0.00598
40.9604,0.00596
40.9654,0.00654
40.9704,0.00711
40.9754,0.00737
40.9804,0.00526
40.9854,0.00588
40.9904,0.00503
40.9954,0.00401
41.0004,0.00225
41.0054,0.00209
41.0104,0.00107
41.0154,2.73E-04
41.0204,2.11E-04
41.0254,0.00222
41.0304,0.00277
41.0354,0.003
41.0404,0.00545
41.0454,0.0073
41.0504,0.00688
41.0554,0.00767
41.0604,0.00807
41.0654,0.00806
41.0704,0.00688
41.0754,0.00641
41.0804,0.00557
41.0854,0.00425
41.0904,0.0034
41.0954,0.00329
41.1004,0.00281
41.1054,0.0027
41.1104,9.12E-04
41.1154,0.00156
41.1204,0.00271
41.1254,0.00349
41.1304,0.00344
41.1354,0.00254
41.1404,0.00228
41.1454,0.00225
41.1504,0.00132
41.1554,0.00406
41.1604,0.00445
41.1654,0.00297
41.1704,0.00436
41.1754,0.00515
41.1804,0.007
41.1854,0.00853
41.1904,0.00978
41.1954,0.0117
41.2004,0.0109
41.2054,0.01035
41.2104,0.01074
41.2154,0.01182
41.2204,0.01136
41.2254,0.01052
41.2304,0.00951
41.2354,0.009
41.2404,0.00677
41.2454,0.00599
41.2504,0.0063
41.2554,0.00696
41.2604,0.00472
41.2654,0.00441
41.2704,0.00473
41.2754,0.00549
41.2804,0.00553
41.2854,0.00734
41.2904,0.00827
41.2954,0.00812
41.3004,0.00807
41.3054,0.00872
41.3104,0.00877
41.3154,0.00802
41.3204,0.00833
41.3254,0.00885
41.3304,0.00758
41.3354,0.00665
41.3404,0.0072
41.3454,0.00597
41.3504,0.00499
41.3554,0.00409
41.3604,0.00394
41.3654,0.0027
41.3704,0.00162
41.3754,0.00207
41.3804,0.00278
41.3854,0.00253
41.3904,0.0037
41.3954,0.00409
41.4004,0.00594
41.4054,0.00648
41.4104,0.00655
41.4154,0.00719
41.4204,0.00666
41.4254,0.00549
41.4304,0.00521
41.4354,0.00424
41.4404,0.00398
41.4454,0.00178
41.4504,0.00106
41.4554,0.00316
41.4604,0.00355
41.4654,0.00374
41.4704,0.00332
41.4754,0.00192
41.4804,6.51E-04
41.4854,9.72E-04
41.4904,0.00245
41.4954,0.00406
41.5004,0.00434
41.5054,0.00496
41.5104,0.00436
41.5154,0.00653
41.5204,0.00989
41.5254,0.0116
41.5304,0.01085
41.5354,0.01086
41.5404,0.00945
41.5454,0.00752
41.5504,0.00644
41.5554,0.00719
41.5604,0.00476
41.5654,0.00207
41.5704,0.00313
41.5754,0.0037
41.5804,0.00206
41.5854,0.00282
41.5904,0.00471
41.5954,0.00548
41.6004,0.00587
41.6054,0.00813
41.6104,0.00949
41.6154,0.00802
41.6204,0.00853
41.6254,0.01025
41.6304,0.0103
41.6354,0.00892
41.6404,0.0087
41.6454,0.00939
41.6504,0.01065
41.6554,0.00915
41.6604,0.00973
41.6654,0.0104
41.6704,0.01124
41.6754,0.01093
41.6804,0.00979
41.6854,0.00969
41.6904,0.00904
41.6954,0.00656
41.7004,0.007
41.7054,0.00665
41.7104,0.00646
41.7154,0.00663
41.7204,0.00716
41.7254,0.00839
41.7304,0.00749
41.7354,0.00754
41.7404,0.00952
41.7454,0.0107
41.7504,0.01199
41.7554,0.01234
41.7604,0.01145
41.7654,0.01071
41.7704,0.01189
41.7754,0.01366
41.7804,0.01398
41.7854,0.01368
41.7904,0.01351
41.7954,0.01276
41.8004,0.01214
41.8054,0.01116
41.8104,0.00963
41.8154,0.00988
41.8204,0.00884
41.8254,0.00683
41.8304,0.00577
41.8354,0.00576
41.8404,0.00626
41.8454,0.00648
41.8504,0.00772
41.8554,0.00941
41.8604,0.00695
41.8654,0.00605
41.8704,0.00774
41.8754,0.0076
41.8804,0.00738
41.8854,0.00767
41.8904,0.00707
41.8954,0.0064
41.9004,0.0062
41.9054,0.00664
41.9104,0.00503
41.9154,0.00338
41.9204,0.00347
41.9254,0.00223
41.9304,4.42E-04
41.9354,0
41.9404,7.80E-04
41.9454,0.00165
41.9504,0.00181
41.9554,0.00322
41.9604,0.0038
41.9654,0.00353
41.9704,0.00506
41.9754,0.00576
41.9804,0.00706
41.9854,0.00706
41.9904,0.00715
41.9954,0.00868
42.0004,0.00984
42.0054,0.00965
42.0104,0.00964
42.0154,0.00899
42.0204,0.0095
42.0254,0.0076
42.0304,0.00514
42.0354,0.00403
42.0404,0.00289
42.0454,0.00449
42.0504,0.00561
42.0554,0.00615
42.0604,0.00658
42.0654,0.00683
42.0704,0.00928
42.0754,0.01108
42.0804,0.01015
42.0854,0.01022
42.0904,0.00886
42.0954,0.00901
42.1004,0.00751
42.1054,0.00594
42.1104,0.00464
42.1154,0.00267
42.1204,0.00397
42.1254,0.00499
42.1304,0.00379
42.1354,0.00422
42.1404,0.00312
42.1454,0.00437
42.1504,0.00644
42.1554,0.0066
42.1604,0.00612
42.1654,0.00398
42.1704,0.00458
42.1754,0.00622
42.1804,0.0053
42.1854,0.00525
42.1904,0.00535
42.1954,0.00538
42.2004,0.00484
42.2054,0.0036
42.2104,0.00465
42.2154,0.00513
42.2204,0.00492
42.2254,0.00474
42.2304,0.00601
42.2354,0.00596
42.2404,0.0061
42.2454,0.00796
42.2504,0.00965
42.2554,0.00944
42.2604,0.00638
42.2654,0.00401
42.2704,0.00339
42.2754,0.00238
42.2804,0.00269
42.2854,0.00226
42.2904,0.003
42.2954,0.00438
42.3004,0.00509
42.3054,0.00709
42.3104,0.00842
42.3154,0.00893
42.3204,0.00927
42.3254,0.00954
42.3304,0.00903
42.3354,0.00918
42.3404,0.00876
42.3454,0.00758
42.3504,0.00893
42.3554,0.01108
42.3604,0.01176
42.3654,0.01133
42.3704,0.01092
42.3754,0.01075
42.3804,0.00817
42.3854,0.00871
42.3904,0.00949
42.3954,0.00877
42.4004,0.00705
42.4054,0.0063
42.4104,0.00534
42.4154,0.00551
42.4204,0.0063
42.4254,0.00671
42.4304,0.00603
42.4354,0.00622
42.4404,0.00599
42.4454,0.00701
42.4504,0.00803
42.4554,0.01016
42.4604,0.00905
42.4654,0.00662
42.4704,0.0067
42.4754,0.00593
42.4804,0.00399
42.4854,0.00443
42.4904,0.00385
42.4954,0.00355
42.5004,0.0024
42.5054,0.00223
42.5104,0.00241
42.5154,0.00396
42.5204,0.00413
42.5254,0.00526
42.5304,0.0033
42.5354,0.00179
42.5404,9.11E-04
42.5454,0.00176
42.5504,0.00346
42.5554,0.00522
42.5604,0.0035
42.5654,0.00359
42.5704,0.00514
42.5754,0.00698
42.5804,0.00825
42.5854,0.00883
42.5904,0.00742
42.5954,0.00679
42.6004,0.00704
42.6054,0.00776
42.6104,0.00676
42.6154,0.00539
42.6204,0.00636
42.6254,0.00642
42.6304,0.0071
42.6354,0.00922
42.6404,0.01048
42.6454,0.01063
42.6504,0.01042
42.6554,0.01184
42.6604,0.01239
42.6654,0.01231
42.6704,0.01331
42.6754,0.0133
42.6804,0.01198
42.6854,0.01238
42.6904,0.01284
42.6954,0.01375
42.7004,0.01329
42.7054,0.01207
42.7104,0.01031
42.7154,0.01027
42.7204,0.00987
42.7254,0.00921
42.7304,0.00722
42.7354,0.0066
42.7404,0.00632
42.7454,0.0076
42.7504,0.0087
42.7554,0.00815
42.7604,0.00591
42.7654,0.00468
42.7704,0.00592
42.7754,0.00714
42.7804,0.00722
42.7854,0.00682
42.7904,0.0051
42.7954,0.00519
42.8004,0.0072
42.8054,0.00704
42.8104,0.00676
42.8154,0.00678
42.8204,0.00628
42.8254,0.00631
42.8304,0.0054
42.8354,0.00483
42.8404,0.0042
42.8454,0.0052
42.8504,0.00747
42.8554,0.00875
42.8604,0.00791
42.8654,0.00665
42.8704,0.00683
42.8754,0.00916
42.8804,0.00995
42.8854,0.01057
42.8904,0.00911
42.8954,0.00951
42.9004,0.01032
42.9054,0.00994
42.9104,0.0089
42.9154,0.00863
42.9204,0.00791
42.9254,0.00964
42.9304,0.01053
42.9354,0.01093
42.9404,0.00896
42.9454,0.00858
42.9504,0.01211
42.9554,0.01403
42.9604,0.01179
42.9654,0.01079
42.9704,0.01086
42.9754,0.01039
42.9804,0.0098
42.9854,0.0105
42.9904,0.00992
42.9954,0.00691
43.0004,0.00744
43.0054,0.01014
43.0104,0.01081
43.0154,0.00995
43.0204,0.01065
43.0254,0.01116
43.0304,0.0119
43.0354,0.0119
43.0404,0.01254
43.0454,0.01255
43.0504,0.01237
43.0554,0.01088
43.0604,0.00967
43.0654,0.00883
43.0704,0.00799
43.0754,0.00746
43.0804,0.00707
43.0854,0.00854
43.0904,0.00883
43.0954,0.00788
43.1004,0.00977
43.1054,0.01084
43.1104,0.0092
43.1154,0.00989
43.1204,0.0097
43.1254,0.00995
43.1304,0.0079
43.1354,0.00603
43.1404,0.00567
43.1454,0.00581
43.1504,0.00586
43.1554,0.00764
43.1604,0.00629
43.1654,0.00566
43.1704,0.00463
43.1754,0.00372
43.1804,0.00424
43.1854,0.00188
43.1904,0
43.1954,3.30E-04
43.2004,1.38E-04
43.2054,0.00102
43.2104,0.00147
43.2154,0.00356
43.2204,0.00415
43.2254,0.00474
43.2304,0.00943
43.2354,0.01182
43.2404,0.01131
43.2454,0.01102
43.2504,0.01133
43.2554,0.01219
43.2604,0.013
43.2654,0.01297
43.2704,0.01396
43.2754,0.01281
43.2804,0.01104
43.2854,0.0118
43.2904,0.01152
43.2954,0.01183
43.3004,0.01127
43.3054,0.0088
43.3104,0.00932
43.3154,0.00836
43.3204,0.00723
43.3254,0.00753
43.3304,0.00679
43.3354,0.00813
43.3404,0.0093
43.3454,0.01007
43.3504,0.01142
43.3554,0.01208
43.3604,0.01206
43.3654,0.01184
43.3704,0.01302
43.3754,0.01329
43.3804,0.01119
43.3854,0.01033
43.3904,0.01023
43.3954,0.01002
43.4004,0.01062
43.4054,0.01023
43.4104,0.0109
43.4154,0.01053
43.4204,0.01154
43.4254,0.0118
43.4304,0.01008
43.4354,0.00974
43.4404,0.009
43.4454,0.00863
43.4504,0.00969
43.4554,0.00951
43.4604,0.00777
43.4654,0.0059
43.4704,0.00583
43.4754,0.00559
43.4804,0.00531
43.4854,0.00727
43.4904,0.00746
43.4954,0.00712
43.5004,0.00786
43.5054,0.00911
43.5104,0.01016
43.5154,0.01234
43.5204,0.01456
43.5254,0.01326
43.5304,0.01133
43.5354,0.0102
43.5404,0.00826
43.5454,0.00739
43.5504,0.00856
43.5554,0.00767
43.5604,0.00611
43.5654,0.00393
43.5704,0.00562
43.5754,0.00689
43.5804,0.00615
43.5854,0.00685
43.5904,0.0076
43.5954,0.00584
43.6004,0.00732
43.6054,0.0062
43.6104,0.00725
43.6154,0.00616
43.6204,0.00459
43.6254,0.00644
43.6304,0.00727
43.6354,0.00653
43.6404,0.00824
43.6454,0.00802
43.6504,0.00962
43.6554,0.0102
43.6604,0.01008
43.6654,0.01041
43.6704,0.00892
43.6754,0.00828
43.6804,0.00867
43.6854,0.0074
43.6904,0.00631
43.6954,0.0058
43.7004,0.00476
43.7054,0.00442
43.7104,0.0042
43.7154,0.00488
43.7204,0.00631
43.7254,0.00586
43.7304,0.00526
43.7354,0.00509
43.7404,0.00442
43.7454,0.00555
43.7504,0.00742
43.7554,0.00889
43.7604,0.00908
43.7654,0.00713
43.7704,0.00753
43.7754,0.00767
43.7804,0.0066
43.7854,0.00762
43.7904,0.00708
43.7954,0.00549
43.8004,0.00504
43.8054,0.00375
43.8104,0.00455
43.8154,0.0047
43.8204,0.00456
43.8254,0.00569
43.8304,0.00497
43.8354,0.0027
43.8404,0.00168
43.8454,8.77E-04
43.8504,0.00246
43.8554,0.00324
43.8604,8.70E-04
43.8654,0
43.8704,0.0014
43.8754,0.00214
43.8804,0.00415
43.8854,0.00636
43.8904,0.00606
43.8954,0.00419
43.9004,0.00396
43.9054,0.00567
43.9104,0.0083
43.9154,0.00788
43.9204,0.00799
43.9254,0.00849
43.9304,0.00859
43.9354,0.00968
43.9404,0.00984
43.9454,0.01006
43.9504,0.01046
43.9554,0.00928
43.9604,0.00721
43.9654,0.00689
43.9704,0.00677
43.9754,0.00538
43.9804,0.00453
43.9854,0.00436
43.9904,0.00405
43.9954,0.00525
44.0004,0.00374
44.0054,0.00485
44.0104,0.00367
44.0154,0.00355
44.0204,0.00474
44.0254,0.00487
44.0304,0.00644
44.0354,0.00501
44.0404,0.00383
44.0454,0.00559
44.0504,0.00714
44.0554,0.00711
44.0604,0.00557
44.0654,0.00431
44.0704,0.00554
44.0754,0.00536
44.0804,0.00696
44.0854,0.00696
44.0904,0.00777
44.0954,0.00742
44.1004,0.00829
44.1054,0.00843
44.1104,0.00662
44.1154,0.00466
44.1204,0.00321
44.1254,0.00285
44.1304,0.00329
44.1354,0.00268
44.1404,0.0018
44.1454,0.002
44.1504,0.00227
44.1554,0.00368
44.1604,0.00262
44.1654,0.00362
44.1704,0.00328
44.1754,0.00288
44.1804,0.0021
44.1854,0.00237
44.1904,0.00265
44.1954,0.00426
44.2004,0.00466
44.2054,0.00692
44.2104,0.00624
44.2154,0.00604
44.2204,0.00501
44.2254,0.00416
44.2304,0.00267
44.2354,0.00214
44.2404,0.00233
44.2454,0.00263
44.2504,0.00224
44.2554,0.00257
44.2604,0.00214
44.2654,0.00327
44.2704,0.00614
44.2754,0.00688
44.2804,0.00602
44.2854,0.00326
44.2904,0.00316
44.2954,0.00299
44.3004,0.00351
44.3054,0.00459
44.3104,0.00496
44.3154,0.00333
44.3204,0.00211
44.3254,0.00229
44.3304,0.00369
44.3354,0.00395
44.3404,0.00473
44.3454,0.006
44.3504,0.00657
44.3554,0.00635
44.3604,0.00781
44.3654,0.00879
44.3704,0.00887
44.3754,0.00909
44.3804,0.00866
44.3854,0.00922
44.3904,0.00882
44.3954,0.00819
44.4004,0.0069
44.4054,0.00454
44.4104,0.0042
44.4154,0.00359
44.4204,0.00295
44.4254,0.00303
44.4304,0.00168
44.4354,7.92E-04
44.4404,0
44.4454,0.00163
44.4504,0.00213
44.4554,0.00356
44.4604,0.00351
44.4654,0.00433
44.4704,0.00538
44.4754,0.00567
44.4804,0.00664
44.4854,0.00841
44.4904,0.00755
44.4954,0.00844
44.5004,0.00888
44.5054,0.01008
44.5104,0.01056
44.5154,0.01111
44.5204,0.0122
44.5254,0.01159
44.5304,0.01094
44.5354,0.01233
44.5404,0.01141
44.5454,0.01166
44.5504,0.01284
44.5554,0.01324
44.5604,0.01126
44.5654,0.00951
44.5704,0.01066
44.5754,0.01093
44.5804,0.00824
44.5854,0.00998
44.5904,0.01026
44.5954,0.01051
44.6004,0.01157
44.6054,0.01373
44.6104,0.01463
44.6154,0.01503
44.6204,0.01539
44.6254,0.01871
44.6304,0.01932
44.6354,0.02083
44.6404,0.02411
44.6454,0.02669
44.6504,0.02725
44.6554,0.03061
44.6604,0.03189
44.6654,0.03436
44.6704,0.03965
44.6754,0.04477
44.6804,0.04795
44.6854,0.05104
44.6904,0.05519
44.6954,0.06328
44.7004,0.07173
44.7054,0.08059
44.7104,0.09136
44.7154,0.09968
44.7204,0.10979
44.7254,0.12238
44.7304,0.13469
44.7354,0.1477
44.7404,0.16065
44.7454,0.17265
44.7504,0.18721
44.7554,0.20098
44.7604,0.21418
44.7654,0.2254
44.7704,0.23841
44.7754,0.24924
44.7804,0.25921
44.7854,0.26757
44.7904,0.27307
44.7954,0.27746
44.8004,0.27792
44.8054,0.27466
44.8104,0.27004
44.8154,0.26092
44.8204,0.25123
44.8254,0.23966
44.8304,0.22664
44.8354,0.21404
44.8404,0.19909
44.8454,0.18637
44.8504,0.17524
44.8554,0.16328
44.8604,0.15077
44.8654,0.14025
44.8704,0.12874
44.8754,0.11855
44.8804,0.10726
44.8854,0.09776
44.8904,0.08751
44.8954,0.07885
44.9004,0.07173
44.9054,0.0642
44.9104,0.05469
44.9154,0.04751
44.9204,0.04067
44.9254,0.03701
44.9304,0.03221
44.9354,0.02822
44.9404,0.02511
44.9454,0.02292
44.9504,0.02197
44.9554,0.0218
44.9604,0.02139
44.9654,0.01989
44.9704,0.01917
44.9754,0.01871
44.9804,0.01578
44.9854,0.01286
44.9904,0.011
44.9954,0.0106
45.0004,0.00942
45.0054,0.00818
45.0104,0.00602
45.0154,0.00444
45.0204,0.00249
45.0254,0.00267
45.0304,0.00243
45.0354,0.00212
45.0404,0.00119
45.0454,8.36E-04
45.0504,8.50E-04
45.0554,0.00301
45.0604,0.00198
45.0654,0.00166
45.0704,0.00222
45.0754,0.0028
45.0804,5.32E-04
45.0854,0
45.0904,8.37E-04
45.0954,9.27E-04
45.1004,0.00167
45.1054,0.00304
45.1104,0.00275
45.1154,0.00184
45.1204,0.00114
45.1254,0.00286
45.1304,0.00237
45.1354,0.00111
45.1404,3.79E-04
45.1454,2.47E-04
45.1504,0.00103
45.1554,0.00319
45.1604,0.00378
45.1654,0.00314
45.1704,0.00277
45.1754,0.00232
45.1804,0.00238
45.1854,0.00416
45.1904,0.00364
45.1954,0.00407
45.2004,0.00333
45.2054,0.00328
45.2104,0.00363
45.2154,0.00538
45.2204,0.00725
45.2254,0.00634
45.2304,0.00462
45.2354,0.00448
45.2404,0.00252
45.2454,0.00227
45.2504,0.00344
45.2554,0.00585
45.2604,0.00468
45.2654,0.00282
45.2704,0.00584
45.2754,0.00806
45.2804,0.00898
45.2854,0.0101
45.2904,0.01041
45.2954,0.01061
45.3004,0.01022
45.3054,0.00969
45.3104,0.01048
45.3154,0.00955
45.3204,0.00814
45.3254,0.00804
45.3304,0.00807
45.3354,0.00935
45.3404,0.00897
45.3454,0.00841
45.3504,0.00938
45.3554,0.01136
45.3604,0.01119
45.3654,0.01089
45.3704,0.01253
45.3754,0.0135
45.3804,0.01239
45.3854,0.01266
45.3904,0.01557
45.3954,0.01593
45.4004,0.01588
45.4054,0.01727
45.4104,0.01863
45.4154,0.0178
45.4204,0.01803
45.4254,0.01984
45.4304,0.02187
45.4354,0.02082
45.4404,0.02282
45.4454,0.02499
45.4504,0.02602
45.4554,0.0281
45.4604,0.03009
45.4654,0.03176
45.4704,0.03236
45.4754,0.03308
45.4804,0.03413
45.4854,0.03484
45.4904,0.03382
45.4954,0.03548
45.5004,0.03536
45.5054,0.03616
45.5104,0.03677
45.5154,0.03982
45.5204,0.04075
45.5254,0.04247
45.5304,0.04422
45.5354,0.04698
45.5404,0.04923
45.5454,0.04946
45.5504,0.05108
45.5554,0.05076
45.5604,0.04736
45.5654,0.04672
45.5704,0.04771
45.5754,0.04788
45.5804,0.04717
45.5854,0.04677
45.5904,0.04822
45.5954,0.04774
45.6004,0.04968
45.6054,0.05267
45.6104,0.05346
45.6154,0.05199
45.6204,0.04988
45.6254,0.05055
45.6304,0.04904
45.6354,0.04904
45.6404,0.04855
45.6454,0.04984
45.6504,0.04961
45.6554,0.05134
45.6604,0.05022
45.6654,0.05145
45.6704,0.05109
45.6754,0.05215
45.6804,0.05105
45.6854,0.05181
45.6904,0.05091
45.6954,0.05005
45.7004,0.04911
45.7054,0.05122
45.7104,0.05123
45.7154,0.05269
45.7204,0.05302
45.7254,0.05444
45.7304,0.05329
45.7354,0.05397
45.7404,0.05634
45.7454,0.05837
45.7504,0.05869
45.7554,0.0586
45.7604,0.05677
45.7654,0.05774
45.7704,0.05813
45.7754,0.0592
45.7804,0.05737
45.7854,0.05676
45.7904,0.05552
45.7954,0.05543
45.8004,0.0561
45.8054,0.05601
45.8104,0.05465
45.8154,0.05488
45.8204,0.05517
45.8254,0.05597
45.8304,0.0553
45.8354,0.05571
45.8404,0.05973
45.8454,0.06083
45.8504,0.06316
45.8554,0.06561
45.8604,0.06533
45.8654,0.06563
45.8704,0.06658
45.8754,0.06851
45.8804,0.0692
45.8854,0.0673
45.8904,0.06924
45.8954,0.07014
45.9004,0.0702
45.9054,0.07357
45.9104,0.07443
45.9154,0.07571
45.9204,0.07528
45.9254,0.07428
45.9304,0.07148
45.9354,0.06949
45.9404,0.06928
45.9454,0.06885
45.9504,0.06607
45.9554,0.0657
45.9604,0.06274
45.9654,0.0611
45.9704,0.0636
45.9754,0.06708
45.9804,0.06801
45.9854,0.06655
45.9904,0.0651
45.9954,0.06663
46.0004,0.06642
46.0054,0.06842
46.0104,0.06999
46.0154,0.06847
46.0204,0.06684
46.0254,0.06776
46.0304,0.06897
46.0354,0.07068
46.0404,0.06957
46.0454,0.06924
46.0504,0.06845
46.0554,0.068
46.0604,0.06648
46.0654,0.06586
46.0704,0.06432
46.0754,0.06417
46.0804,0.06276
46.0854,0.06466
46.0904,0.06589
46.0954,0.06658
46.1004,0.0652
46.1054,0.06536
46.1104,0.0643
46.1154,0.06314
46.1204,0.06232
46.1254,0.0622
46.1304,0.05791
46.1354,0.05539
46.1404,0.05476
46.1454,0.05581
46.1504,0.05606
46.1554,0.05564
46.1604,0.05389
46.1654,0.05172
46.1704,0.05182
46.1754,0.05224
46.1804,0.05263
46.1854,0.05194
46.1904,0.04927
46.1954,0.04644
46.2004,0.04653
46.2054,0.0481
46.2104,0.04752
46.2154,0.04585
46.2204,0.04502
46.2254,0.04456
46.2304,0.04236
46.2354,0.04308
46.2404,0.04567
46.2454,0.04494
46.2504,0.04213
46.2554,0.04074
46.2604,0.03934
46.2654,0.03917
46.2704,0.03824
46.2754,0.03773
46.2804,0.03596
46.2854,0.03513
46.2904,0.03454
46.2954,0.03494
46.3004,0.0361
46.3054,0.03503
46.3104,0.03202
46.3154,0.0308
46.3204,0.02997
46.3254,0.02968
46.3304,0.02714
46.3354,0.02501
46.3404,0.02397
46.3454,0.02389
46.3504,0.02507
46.3554,0.0268
46.3604,0.02569
46.3654,0.02522
46.3704,0.02538
46.3754,0.02447
46.3804,0.0227
46.3854,0.02253
46.3904,0.01978
46.3954,0.01592
46.4004,0.01255
46.4054,0.01099
46.4104,0.00872
46.4154,0.00685
46.4204,0.0072
46.4254,0.00869
46.4304,0.00812
46.4354,0.0087
46.4404,0.00995
46.4454,0.01315
46.4504,0.01421
46.4554,0.01588
46.4604,0.01556
46.4654,0.01382
46.4704,0.01483
46.4754,0.01429
46.4804,0.0133
46.4854,0.01327
46.4904,0.01119
46.4954,0.01115
46.5004,0.01196
46.5054,0.01206
46.5104,0.01089
46.5154,0.00811
46.5204,0.00903
46.5254,0.0092
46.5304,0.00902
46.5354,0.00939
46.5404,0.00794
46.5454,0.00691
46.5504,0.00644
46.5554,0.0082
46.5604,0.00628
46.5654,0.0034
46.5704,0.00259
46.5754,0.00124
46.5804,5.66E-04
46.5854,0.00167
46.5904,0.00114
46.5954,0.00246
46.6004,0.00299
46.6054,0.00572
46.6104,0.0068
46.6154,0.00771
46.6204,0.00798
46.6254,0.00744
46.6304,0.00714
46.6354,0.00747
46.6404,0.00598
46.6454,0.00477
46.6504,0.00574
46.6554,0.00773
46.6604,0.00686
46.6654,0.00583
46.6704,0.00798
46.6754,0.00868
46.6804,0.00889
46.6854,0.00997
46.6904,0.00916
46.6954,0.00832
46.7004,0.00614
46.7054,0.00556
46.7104,0.00525
46.7154,0.00427
46.7204,0.00375
46.7254,0.00193
46.7304,5.91E-04
46.7354,0.00193
46.7404,6.72E-04
46.7454,3.12E-04
46.7504,0.00187
46.7554,0.00432
46.7604,0.00206
46.7654,0
46.7704,0.00157
46.7754,0.00316
46.7804,0.00228
46.7854,0.00314
46.7904,0.00379
46.7954,0.00367
46.8004,0.00367
46.8054,0.00531
46.8104,0.0061
46.8154,0.00566
46.8204,0.00537
46.8254,0.00575
46.8304,0.00703
46.8354,0.00843
46.8404,0.00794
46.8454,0.00847
46.8504,0.00874
46.8554,0.00993
46.8604,0.01082
46.8654,0.01006
46.8704,0.01121
46.8754,0.00978
46.8804,0.00821
46.8854,0.00831
46.8904,0.00772
46.8954,0.00698
46.9004,0.00718
46.9054,0.00644
46.9104,0.00607
46.9154,0.00498
46.9204,0.00466
46.9254,0.005
46.9304,0.00535
46.9354,0.0042
46.9404,0.00529
46.9454,0.00629
46.9504,0.00642
46.9554,0.0067
46.9604,0.00658
46.9654,0.00747
46.9704,0.00791
46.9754,0.00728
46.9804,0.00918
46.9854,0.01031
46.9904,0.01061
46.9954,0.00996
47.0004,0.00967
47.0054,0.0093
47.0104,0.00891
47.0154,0.00781
47.0204,0.00926
47.0254,0.00903
47.0304,0.00803
47.0354,0.00498
47.0404,0.00311
47.0454,0.00439
47.0504,0.00449
47.0554,0.00418
47.0604,0.004
47.0654,0.00153
47.0704,5.27E-04
47.0754,0
47.0804,8.13E-04
47.0854,0.00242
47.0904,8.51E-04
47.0954,0.0018
47.1004,0.00218
47.1054,0.0037
47.1104,0.00508
47.1154,0.00564
47.1204,0.00674
47.1254,0.00827
47.1304,0.00744
47.1354,0.00772
47.1404,0.00742
47.1454,0.00589
47.1504,0.00517
47.1554,0.00667
47.1604,0.00537
47.1654,0.00267
47.1704,0
47.1754,0.00153
47.1804,0.00172
47.1854,0.00326
47.1904,0.00467
47.1954,0.00512
47.2004,0.00319
47.2054,0.0038
47.2104,0.00434
47.2154,0.00621
47.2204,0.00585
47.2254,0.00681
47.2304,0.00478
47.2354,0.0047
47.2404,0.00415
47.2454,0.00487
47.2504,0.00577
47.2554,0.00785
47.2604,0.00727
47.2654,0.00794
47.2704,0.00731
47.2754,0.00799
47.2804,0.00831
47.2854,0.00823
47.2904,0.00721
47.2954,0.00725
47.3004,0.00631
47.3054,0.00849
47.3104,0.00819
47.3154,0.00865
47.3204,0.00846
47.3254,0.00729
47.3304,0.00644
47.3354,0.00689
47.3404,0.0046
47.3454,0.00503
47.3504,0.00337
47.3554,0.00421
47.3604,0.00463
47.3654,0.00315
47.3704,0.00262
47.3754,0.0034
47.3804,0.00321
47.3854,0.00576
47.3904,0.00638
47.3954,0.00631
47.4004,0.00538
47.4054,0.0038
47.4104,0.00437
47.4154,0.00494
47.4204,0.00623
47.4254,0.00764
47.4304,0.00802
47.4354,0.00738
47.4404,0.00763
47.4454,0.00681
47.4504,0.00954
47.4554,0.01207
47.4604,0.01236
47.4654,0.01051
47.4704,0.00699
47.4754,0.00498
47.4804,0.00391
47.4854,0.00508
47.4904,0.00701
47.4954,0.0051
47.5004,0.00394
47.5054,0.0046
47.5104,0.00543
47.5154,0.00871
47.5204,0.01109
47.5254,0.01198
47.5304,0.00913
47.5354,0.00753
47.5404,0.00778
47.5454,0.00945
47.5504,0.01252
47.5554,0.01455
47.5604,0.01522
47.5654,0.01385
47.5704,0.0154
47.5754,0.01743
47.5804,0.01858
47.5854,0.01871
47.5904,0.01639
47.5954,0.01318
47.6004,0.01222
47.6054,0.01036
47.6104,0.01068
47.6154,0.00982
47.6204,0.01054
47.6254,0.01034
47.6304,0.00975
47.6354,0.00986
47.6404,0.01031
47.6454,0.0098
47.6504,0.01316
47.6554,0.01355
47.6604,0.01344
47.6654,0.01219
47.6704,0.01188
47.6754,0.0134
47.6804,0.01457
47.6854,0.01516
47.6904,0.01756
47.6954,0.01541
47.7004,0.01449
47.7054,0.01508
47.7104,0.01508
47.7154,0.01577
47.7204,0.01548
47.7254,0.01481
47.7304,0.01259
47.7354,0.00968
47.7404,0.00947
47.7454,0.01075
47.7504,0.0103
47.7554,0.01133
47.7604,0.00968
47.7654,0.00703
47.7704,0.00823
47.7754,0.01159
47.7804,0.01078
47.7854,0.01101
47.7904,0.00957
47.7954,0.00891
47.8004,0.00901
47.8054,0.00998
47.8104,0.01164
47.8154,0.01145
47.8204,0.01185
47.8254,0.01271
47.8304,0.01219
47.8354,0.01172
47.8404,0.01171
47.8454,0.01147
47.8504,0.01247
47.8554,0.0127
47.8604,0.012
47.8654,0.00881
47.8704,0.00884
47.8754,0.00865
47.8804,0.00916
47.8854,0.0099
47.8904,0.00967
47.8954,0.01015
47.9004,0.01091
47.9054,0.01016
47.9104,0.01177
47.9154,0.01348
47.9204,0.01325
47.9254,0.01095
47.9304,0.00849
47.9354,0.00759
47.9404,0.00579
47.9454,0.00409
47.9504,0.00513
47.9554,0.00565
47.9604,0.00527
47.9654,0.00477
47.9704,0.00796
47.9754,0.00897
47.9804,0.00795
47.9854,0.00816
47.9904,0.01025
47.9954,0.01064
48.0004,0.01005
48.0054,0.00785
48.0104,0.00818
48.0154,0.00701
48.0204,0.00595
48.0254,0.00594
48.0304,0.00439
48.0354,0.00159
48.0404,6.72E-04
48.0454,0.00141
48.0504,0.00353
48.0554,0.0038
48.0604,0.00252
48.0654,0.00316
48.0704,0.00488
48.0754,0.00654
48.0804,0.00861
48.0854,0.00918
48.0904,0.00764
48.0954,0.00664
48.1004,0.00697
48.1054,0.00766
48.1104,0.00856
48.1154,0.00929
48.1204,0.00902
48.1254,0.00914
48.1304,0.0082
48.1354,0.0072
48.1404,0.00553
48.1454,0.00595
48.1504,0.00673
48.1554,0.00692
48.1604,0.00438
48.1654,0.00434
48.1704,0.00511
48.1754,0.00677
48.1804,0.00825
48.1854,0.01076
48.1904,0.01154
48.1954,0.01328
48.2004,0.0137
48.2054,0.01416
48.2104,0.0144
48.2154,0.01336
48.2204,0.01195
48.2254,0.01166
48.2304,0.01099
48.2354,0.01035
48.2404,0.00965
48.2454,0.01184
48.2504,0.01331
48.2554,0.01342
48.2604,0.01229
48.2654,0.01132
48.2704,0.01273
48.2754,0.01095
48.2804,0.00925
48.2854,0.00968
48.2904,0.00719
48.2954,0.00738
48.3004,0.00661
48.3054,0.00739
48.3104,0.00719
48.3154,0.00622
48.3204,0.00899
48.3254,0.00963
48.3304,0.00841
48.3354,0.00992
48.3404,0.01041
48.3454,0.01198
48.3504,0.01119
48.3554,0.01043
48.3604,0.00943
48.3654,0.00726
48.3704,0.00714
48.3754,0.00734
48.3804,0.00557
48.3854,0.00561
48.3904,0.00657
48.3954,0.00763
48.4004,0.01046
48.4054,0.01077
48.4104,0.00982
48.4154,0.01102
48.4204,0.01148
48.4254,0.01298
48.4304,0.01212
48.4354,0.01097
48.4404,0.01054
48.4454,0.00988
48.4504,0.01089
48.4554,0.01323
48.4604,0.01111
48.4654,0.00889
48.4704,0.00803
48.4754,0.00679
48.4804,0.00498
48.4854,0.0043
48.4904,0.00438
48.4954,0.00576
48.5004,0.00627
48.5054,0.00752
48.5104,0.0096
48.5154,0.00937
48.5204,0.0098
48.5254,0.01166
48.5304,0.01306
48.5354,0.01211
48.5404,0.00908
48.5454,0.00978
48.5504,0.01151
48.5554,0.01211
48.5604,0.01204
48.5654,0.01272
48.5704,0.0122
48.5754,0.01104
48.5804,0.01147
48.5854,0.01186
48.5904,0.01058
48.5954,0.00947
48.6004,0.00913
48.6054,0.00851
48.6104,0.00728
48.6154,0.00675
48.6204,0.00841
48.6254,0.00873
48.6304,0.0106
48.6354,0.00984
48.6404,0.01013
48.6454,0.01012
48.6504,0.00928
48.6554,0.01003
48.6604,0.00874
48.6654,0.00522
48.6704,0.00475
48.6754,0.00311
48.6804,0.00116
48.6854,0
48.6904,2.14E-04
48.6954,0.00178
48.7004,0.00262
48.7054,0.00448
48.7104,0.00746
48.7154,0.00945
48.7204,0.00991
48.7254,0.01292
48.7304,0.01392
48.7354,0.01273
48.7404,0.01242
48.7454,0.01249
48.7504,0.01402
48.7554,0.01349
48.7604,0.01092
48.7654,0.01049
48.7704,0.00944
48.7754,0.00797
48.7804,0.00804
48.7854,0.00897
48.7904,0.00839
48.7954,0.00681
48.8004,0.00649
48.8054,0.00758
48.8104,0.00731
48.8154,0.00755
48.8204,0.00733
48.8254,0.00775
48.8304,0.007
48.8354,0.00705
48.8404,0.00734
48.8454,0.00999
48.8504,0.01072
48.8554,0.01161
48.8604,0.0108
48.8654,0.01053
48.8704,0.01005
48.8754,0.00882
48.8804,0.00827
48.8854,0.00851
48.8904,0.00673
48.8954,0.00569
48.9004,0.00664
48.9054,0.00721
48.9104,0.00771
48.9154,0.0078
48.9204,0.0081
48.9254,0.00813
48.9304,0.00652
48.9354,0.00664
48.9404,0.00781
48.9454,0.00779
48.9504,0.00822
48.9554,0.01035
48.9604,0.01016
48.9654,0.00947
48.9704,0.00901
48.9754,0.00957
48.9804,0.00876
48.9854,0.00879
48.9904,0.00834
48.9954,0.00759
49.0004,0.00581
49.0054,0.00469
49.0104,0.00468
49.0154,0.00558
49.0204,0.00641
49.0254,0.00788
49.0304,0.00547
49.0354,0.00435
49.0404,0.00528
49.0454,0.00744
49.0504,0.00871
49.0554,0.01089
49.0604,0.01135
49.0654,0.0111
49.0704,0.01014
49.0754,0.01101
49.0804,0.01131
49.0854,0.01106
49.0904,0.00974
49.0954,0.01033
49.1004,0.01049
49.1054,0.01051
49.1104,0.00896
49.1154,0.00844
49.1204,0.00963
49.1254,0.00974
49.1304,0.01003
49.1354,0.0086
49.1404,0.00788
49.1454,0.00766
49.1504,0.00833
49.1554,0.01094
49.1604,0.01006
49.1654,0.00835
49.1704,0.00791
49.1754,0.00798
49.1804,0.00825
49.1854,0.00741
49.1904,0.00533
49.1954,0.00391
49.2004,0.00248
49.2054,0.002
49.2104,0.00159
49.2154,0.00168
49.2204,9.69E-04
49.2254,4.26E-04
49.2304,0.00244
49.2354,0.00469
49.2404,0.00402
49.2454,0.00391
49.2504,0.00484
49.2554,0.00538
49.2604,0.00652
49.2654,0.00602
49.2704,0.00842
49.2754,0.00846
49.2804,0.00648
49.2854,0.00597
49.2904,0.00503
49.2954,0.00529
49.3004,0.00827
49.3054,0.00744
49.3104,0.00776
49.3154,0.00673
49.3204,0.00595
49.3254,0.00683
49.3304,0.00814
49.3354,0.00909
49.3404,0.00832
49.3454,0.00491
49.3504,0.0051
49.3554,0.00631
49.3604,0.00653
49.3654,0.00578
49.3704,0.00559
49.3754,0.00699
49.3804,0.00655
49.3854,0.00805
49.3904,0.00943
49.3954,0.00953
49.4004,0.00908
49.4054,0.00905
49.4104,0.00858
49.4154,0.0095
49.4204,0.00831
49.4254,0.00927
49.4304,0.00911
49.4354,0.00838
49.4404,0.00742
49.4454,0.00755
49.4504,0.00759
49.4554,0.00847
49.4604,0.00625
49.4654,0.00475
49.4704,0.00409
49.4754,0.00157
49.4804,7.09E-04
49.4854,0.0013
49.4904,0.00112
49.4954,1.23E-04
49.5004,0.00144
49.5054,0.00398
49.5104,0.00552
49.5154,0.00426
49.5204,0.00717
49.5254,0.00844
49.5304,0.00889
49.5354,0.00904
49.5404,0.00977
49.5454,0.00916
49.5504,0.00671
49.5554,0.00608
49.5604,0.00698
49.5654,0.0053
49.5704,0.00626
49.5754,0.00604
49.5804,0.00566
49.5854,0.0061
49.5904,0.00727
49.5954,0.01035
49.6004,0.0123
49.6054,0.0142
49.6104,0.0142
49.6154,0.01314
49.6204,0.01371
49.6254,0.01383
49.6304,0.01427
49.6354,0.013
49.6404,0.01078
49.6454,0.00958
49.6504,0.00832
49.6554,0.01089
49.6604,0.01187
49.6654,0.01046
49.6704,0.01127
49.6754,0.01094
49.6804,0.01026
49.6854,0.01183
49.6904,0.0128
49.6954,0.01268
49.7004,0.01151
49.7054,0.01125
49.7104,0.01193
49.7154,0.01008
49.7204,0.01095
49.7254,0.01101
49.7304,0.00984
49.7354,0.00835
49.7404,0.00865
49.7454,0.00838
49.7504,0.00856
49.7554,0.00831
49.7604,0.00849
49.7654,0.00619
49.7704,0.00614
49.7754,0.00564
49.7804,0.00458
49.7854,0.00307
49.7904,0.00374
49.7954,0.00384
49.8004,0.00507
49.8054,0.00636
49.8104,0.00704
49.8154,0.00677
49.8204,0.00787
49.8254,0.00933
49.8304,0.01184
49.8354,0.0105
49.8404,0.00892
49.8454,0.00879
49.8504,0.00927
49.8554,0.0111
49.8604,0.0115
49.8654,0.00968
49.8704,0.00922
49.8754,0.00675
49.8804,0.00748
49.8854,0.00937
49.8904,0.01016
49.8954,0.00828
49.9004,0.00639
49.9054,0.00673
49.9104,0.00785
49.9154,0.009
49.9204,0.01122
49.9254,0.01134
49.9304,0.00945
49.9354,0.00723
49.9404,0.00751
49.9454,0.0074
49.9504,0.00672
49.9554,0.00744
49.9604,0.00578
49.9654,0.00421
49.9704,0.00457
49.9754,0.0057
49.9804,0.00533
49.9854,0.007
49.9904,0.00906
49.9954,0.01013
50.0004,0.01092
50.0054,0.01177
50.0104,0.01231
50.0154,0.01265
50.0204,0.01248
50.0254,0.01377
50.0304,0.01302
50.0354,0.01146
50.0404,0.01214
50.0454,0.01172
50.0504,0.01286
50.0554,0.01183
50.0604,0.01034
50.0654,0.00932
50.0704,0.00785
50.0754,0.00677
50.0804,0.00617
50.0854,0.00422
50.0904,0.00258
50.0954,8.19E-04
50.1004,0.00236
50.1054,8.27E-04
50.1104,0.00149
50.1154,0.00319
50.1204,0.00352
50.1254,0.00417
50.1304,0.00411
50.1354,0.00441
50.1404,0.00335
50.1454,0.0035
50.1504,0.00498
50.1554,0.00493
50.1604,0.00391
50.1654,0.00275
50.1704,0.00159
50.1754,0.00167
50.1804,0.00114
50.1854,0.0027
50.1904,0.00301
50.1954,0.00459
50.2004,0.00576
50.2054,0.00625
50.2104,0.00721
50.2154,0.00906
50.2204,0.00868
50.2254,0.00972
50.2304,0.01062
50.2354,0.01014
50.2404,0.00931
50.2454,0.00895
50.2504,0.00975
50.2554,0.01132
50.2604,0.00999
50.2654,0.01154
50.2704,0.01114
50.2754,0.0098
50.2804,0.00917
50.2854,0.00934
50.2904,0.00937
50.2954,0.00979
50.3004,0.00859
50.3054,0.00875
50.3104,0.00783
50.3154,0.00934
50.3204,0.01055
50.3254,0.01108
50.3304,0.01013
50.3354,0.00936
50.3404,0.00869
50.3454,0.00912
50.3504,0.00997
50.3554,0.01341
50.3604,0.01351
50.3654,0.01187
50.3704,0.01207
50.3754,0.01271
50.3804,0.01391
50.3854,0.01318
50.3904,0.01231
50.3954,0.01313
50.4004,0.01335
50.4054,0.01401
50.4104,0.01519
50.4154,0.01557
50.4204,0.01479
50.4254,0.01328
50.4304,0.01315
50.4354,0.01304
50.4404,0.01158
50.4454,0.00913
50.4504,0.00835
50.4554,0.009
50.4604,0.00825
50.4654,0.00913
50.4704,0.01093
50.4754,0.01165
50.4804,0.01254
50.4854,0.01254
50.4904,0.01149
50.4954,0.01035
50.5004,0.00902
50.5054,0.00763
50.5104,0.00689
50.5154,0.00643
50.5204,0.00709
50.5254,0.00642
50.5304,0.00667
50.5354,0.00619
50.5404,0.00484
50.5454,0.0058
50.5504,0.00793
50.5554,0.00852
50.5604,0.00605
50.5654,0.00286
50.5704,0.00227
50.5754,4.99E-04
50.5804,0
50.5854,0.00215
50.5904,0.0018
50.5954,8.98E-04
50.6004,0.00212
50.6054,0.00473
50.6104,0.00585
50.6154,0.00875
50.6204,0.0116
50.6254,0.0122
50.6304,0.01093
50.6354,0.01046
50.6404,0.01072
50.6454,0.01074
50.6504,0.01169
50.6554,0.01266
50.6604,0.0096
50.6654,0.00707
50.6704,0.00993
50.6754,0.01099
50.6804,0.01032
50.6854,0.01024
50.6904,0.00946
50.6954,0.00718
50.7004,0.00681
50.7054,0.00764
50.7104,0.00754
50.7154,0.0059
50.7204,0.00662
50.7254,0.00749
50.7304,0.00684
50.7354,0.00519
50.7404,0.00452
50.7454,0.00544
50.7504,0.00649
50.7554,0.00869
50.7604,0.00779
50.7654,0.00564
50.7704,0.00551
50.7754,0.00634
50.7804,0.00682
50.7854,0.00762
50.7904,0.00874
50.7954,0.01048
50.8004,0.01057
50.8054,0.01001
50.8104,0.00958
50.8154,0.0097
50.8204,0.00874
50.8254,0.00916
50.8304,0.00848
50.8354,0.0078
50.8404,0.00493
50.8454,0.00328
50.8504,0.00452
50.8554,0.00631
50.8604,0.0058
50.8654,0.00713
50.8704,0.00693
50.8754,0.0065
50.8804,0.00524
50.8854,0.00654
50.8904,0.00838
50.8954,0.00792
50.9004,0.00775
50.9054,0.00845
50.9104,0.00873
50.9154,0.0093
50.9204,0.01058
50.9254,0.01212
50.9304,0.01057
50.9354,0.00838
50.9404,0.00795
50.9454,0.0074
50.9504,0.00728
50.9554,0.00516
50.9604,0.00343
50.9654,0.00193
50.9704,0
50.9754,0.00272
50.9804,0.00326
50.9854,0.00267
50.9904,0.00306
50.9954,0.00409
51.0004,0.00594
51.0054,0.00819
51.0104,0.01053
51.0154,0.01213
51.0204,0.00977
51.0254,0.01066
51.0304,0.01159
51.0354,0.01188
51.0404,0.01089
51.0454,0.01058
51.0504,0.01114
51.0554,0.01039
51.0604,0.00918
51.0654,0.00914
51.0704,0.00942
51.0754,0.00917
51.0804,0.00881
51.0854,0.00835
51.0904,0.00849
51.0954,0.00755
51.1004,0.00745
51.1054,0.00742
51.1104,0.00791
51.1154,0.00773
51.1204,0.00645
51.1254,0.00484
51.1304,0.00559
51.1354,0.00485
51.1404,0.00447
51.1454,0.00534
51.1504,0.00656
51.1554,0.00744
51.1604,0.00627
51.1654,0.00775
51.1704,0.00972
51.1754,0.0111
51.1804,0.01025
51.1854,0.01007
51.1904,0.01055
51.1954,0.01002
51.2004,0.00985
51.2054,0.01111
51.2104,0.01092
51.2154,0.01101
51.2204,0.00926
51.2254,0.01108
51.2304,0.01006
51.2354,0.00833
51.2404,0.00865
51.2454,0.00956
51.2504,0.00901
51.2554,0.00995
51.2604,0.00953
51.2654,0.00966
51.2704,0.00982
51.2754,0.01048
51.2804,0.01037
51.2854,0.00856
51.2904,0.00675
51.2954,0.0066
51.3004,0.00671
51.3054,0.00566
51.3104,0.00517
51.3154,0.00518
51.3204,0.0056
51.3254,0.00496
51.3304,0.00473
51.3354,0.00462
51.3404,0.00423
51.3454,0.00262
51.3504,0.00347
51.3554,0.00348
51.3604,0.00233
51.3654,0.00113
51.3704,0.00167
51.3754,0.00238
51.3804,0.0013
51.3854,0.00187
51.3904,0.00331
51.3954,0.00382
51.4004,0.00559
51.4054,0.00614
51.4104,0.00758
51.4154,0.00751
51.4204,0.00821
51.4254,0.00847
51.4304,0.00857
51.4354,0.00785
51.4404,0.00745
51.4454,0.00671
51.4504,0.00677
51.4554,0.0077
51.4604,0.00769
51.4654,0.00658
51.4704,0.00763
51.4754,0.00653
51.4804,0.00603
51.4854,0.008
51.4904,0.0075
51.4954,0.0066
51.5004,0.00554
51.5054,0.00656
51.5104,0.00734
51.5154,0.0068
51.5204,0.00655
51.5254,0.00613
51.5304,0.00562
51.5354,0.00704
51.5404,0.00844
51.5454,0.00949
51.5504,0.00962
51.5554,0.01092
51.5604,0.01087
51.5654,0.01135
51.5704,0.01225
51.5754,0.00916
51.5804,0.00682
51.5854,0.00497
51.5904,0.00227
51.5954,0.00261
51.6004,0
51.6054,8.70E-04
51.6104,6.42E-04
51.6154,0
51.6204,0.00213
51.6254,0.00254
51.6304,0.00267
51.6354,0.00522
51.6404,0.00326
51.6454,0.00422
51.6504,0.00316
51.6554,0.00509
51.6604,0.00546
51.6654,0.00432
51.6704,0.00406
51.6754,0.00555
51.6804,0.00507
51.6854,0.00713
51.6904,0.00869
51.6954,0.00991
51.7004,0.00968
51.7054,0.0099
51.7104,0.00959
51.7154,0.01037
51.7204,0.01114
51.7254,0.01019
51.7304,0.00841
51.7354,0.00711
51.7404,0.00639
51.7454,0.00709
51.7504,0.00782
51.7554,0.00767
51.7604,0.00701
51.7654,0.00495
51.7704,0.00444
51.7754,0.00398
51.7804,0.00385
51.7854,0.00514
51.7904,0.00611
51.7954,0.00571
51.8004,0.00674
51.8054,0.00714
51.8104,0.00694
51.8154,0.00835
51.8204,0.01036
51.8254,0.01101
51.8304,0.01044
51.8354,0.00897
51.8404,0.00902
51.8454,0.00853
51.8504,0.00804
51.8554,0.00753
51.8604,0.00696
51.8654,0.00458
51.8704,0.00438
51.8754,0.0043
51.8804,0.0039
51.8854,0.00499
51.8904,0.00442
51.8954,0.00344
51.9004,0.00436
51.9054,0.00326
51.9104,0.00367
51.9154,0.00431
51.9204,0.0047
51.9254,0.00398
51.9304,0.00304
51.9354,0.00294
51.9404,0.00409
51.9454,0.00631
51.9504,0.00861
51.9554,0.00991
51.9604,0.00741
51.9654,0.00507
51.9704,0.00582
51.9754,0.00565
51.9804,0.00697
51.9854,0.00771
51.9904,0.00452
51.9954,0.00352
52.0004,0.00409
52.0054,0.00582
52.0104,0.00549
52.0154,0.00405
52.0204,0.00475
52.0254,0.00489
52.0304,0.00426
52.0354,0.00468
52.0404,0.00344
52.0454,0.00399
52.0504,0.00317
52.0554,0.00462
52.0604,0.00463
52.0654,0.00348
52.0704,0.00531
52.0754,0.00673
52.0804,0.00643
52.0854,0.00702
52.0904,0.00603
52.0954,0.00764
52.1004,0.00888
52.1054,0.01089
52.1104,0.01094
52.1154,0.01048
52.1204,0.009
52.1254,0.01004
52.1304,0.01048
52.1354,0.00948
52.1404,0.00798
52.1454,0.00691
52.1504,0.00631
52.1554,0.00624
52.1604,0.0046
52.1654,0.00528
52.1704,0.00626
52.1754,0.00701
52.1804,0.0073
52.1854,0.00907
52.1904,0.01024
52.1954,0.00971
52.2004,0.01159
52.2054,0.01341
52.2104,0.01299
52.2154,0.01396
52.2204,0.01461
52.2254,0.01555
52.2304,0.01383
52.2354,0.01218
52.2404,0.01101
52.2454,0.01025
52.2504,0.00939
52.2554,0.00993
52.2604,0.00854
52.2654,0.00625
52.2704,0.00729
52.2754,0.00979
52.2804,0.00952
52.2854,0.01148
52.2904,0.01139
52.2954,0.01087
52.3004,0.00975
52.3054,0.00868
52.3104,0.00922
52.3154,0.00736
52.3204,0.00425
52.3254,0.00396
52.3304,0.00118
52.3354,4.34E-04
52.3404,7.98E-04
52.3454,0.00176
52.3504,0.00458
52.3554,0.00375
52.3604,0.00303
52.3654,0.00431
52.3704,0.00656
52.3754,0.00799
52.3804,0.00766
52.3854,0.00869
52.3904,0.00865
52.3954,0.00565
52.4004,0.00726
52.4054,0.00837
52.4104,0.00687
52.4154,0.00597
52.4204,0.00679
52.4254,0.00619
52.4304,0.00388
52.4354,0.00289
52.4404,0.00453
52.4454,0.00441
52.4504,0.00508
52.4554,0.00775
52.4604,0.0075
52.4654,0.00588
52.4704,0.00573
52.4754,0.0073
52.4804,0.00879
52.4854,0.00819
52.4904,0.0081
52.4954,0.00782
52.5004,0.00596
52.5054,0.00501
52.5104,0.00503
52.5154,0.00579
52.5204,0.00635
52.5254,0.00539
52.5304,0.00417
52.5354,0.00369
52.5404,0.0036
52.5454,0.00402
52.5504,0.00553
52.5554,0.00684
52.5604,0.0057
52.5654,0.0033
52.5704,0.0038
52.5754,0.00374
52.5804,0.00245
52.5854,0.00168
52.5904,0.00116
52.5954,0
52.6004,3.64E-04
52.6054,0.00181
52.6104,0.0024
52.6154,0.00243
52.6204,0.00332
52.6254,0.00651
52.6304,0.00648
52.6354,0.00622
52.6404,0.0075
52.6454,0.00821
52.6504,0.00806
52.6554,0.00842
52.6604,0.00775
52.6654,0.00632
52.6704,0.00636
52.6754,0.00782
52.6804,0.00808
52.6854,0.00806
52.6904,0.00769
52.6954,0.00789
52.7004,0.00949
52.7054,0.0102
52.7104,0.01213
52.7154,0.01085
52.7204,0.00995
52.7254,0.01068
52.7304,0.01195
52.7354,0.01174
52.7404,0.01047
52.7454,0.00736
52.7504,0.00851
52.7554,0.01038
52.7604,0.01042
52.7654,0.01079
52.7704,0.01157
52.7754,0.01002
52.7804,0.00833
52.7854,0.0109
52.7904,0.01318
52.7954,0.01178
52.8004,0.0107
52.8054,0.01006
52.8104,0.00831
52.8154,0.00841
52.8204,0.00918
52.8254,0.01013
52.8304,0.00911
52.8354,0.00844
52.8404,0.00831
52.8454,0.0073
52.8504,0.00741
52.8554,0.00871
52.8604,0.00749
52.8654,0.0057
52.8704,0.00732
52.8754,0.00637
52.8804,0.006
52.8854,0.00691
52.8904,0.00766
52.8954,0.00875
52.9004,0.01029
52.9054,0.01208
52.9104,0.01264
52.9154,0.00978
52.9204,0.00968
52.9254,0.00861
52.9304,0.00763
52.9354,0.00579
52.9404,0.00537
52.9454,0.0048
52.9504,0.00345
52.9554,0.00356
52.9604,0.00552
52.9654,0.00459
52.9704,0.00573
52.9754,0.00564
52.9804,0.00712
52.9854,0.00709
52.9904,0.00588
52.9954,0.00691
53.0004,0.00847
53.0054,0.00869
53.0104,0.01041
53.0154,0.01147
53.0204,0.01289
53.0254,0.01278
53.0304,0.01171
53.0354,0.01038
53.0404,0.00962
53.0454,0.00853
53.0504,0.00871
53.0554,0.00983
53.0604,0.00848
53.0654,0.00643
53.0704,0.00657
53.0754,0.00824
53.0804,0.0107
53.0854,0.01129
53.0904,0.00953
53.0954,0.00975
53.1004,0.00972
53.1054,0.01021
53.1104,0.0089
53.1154,0.00815
53.1204,0.00767
53.1254,0.00636
53.1304,0.00714
53.1354,0.00972
53.1404,0.0087
53.1454,0.00767
53.1504,0.0072
53.1554,0.00969
53.1604,0.01011
53.1654,0.00981
53.1704,0.01291
53.1754,0.01077
53.1804,0.00854
53.1854,0.00978
53.1904,0.01012
53.1954,0.01102
53.2004,0.0116
53.2054,0.01063
53.2104,0.00999
53.2154,0.00733
53.2204,0.00574
53.2254,0.00589
53.2304,0.00397
53.2354,0.00221
53.2404,5.18E-04
53.2454,0
53.2504,0.00276
53.2554,0.00226
53.2604,5.31E-04
53.2654,0.00157
53.2704,0.00196
53.2754,0.00232
53.2804,0.00307
53.2854,0.00432
53.2904,0.00357
53.2954,0.00341
53.3004,0.00616
53.3054,0.00862
53.3104,0.01158
53.3154,0.01446
53.3204,0.01687
53.3254,0.01857
53.3304,0.01902
53.3354,0.01963
53.3404,0.01811
53.3454,0.01625
53.3504,0.01602
53.3554,0.01351
53.3604,0.00968
53.3654,0.00695
53.3704,0.00773
53.3754,0.00978
53.3804,0.00957
53.3854,0.00921
53.3904,0.00992
53.3954,0.01101
53.4004,0.01123
53.4054,0.01226
53.4104,0.01299
53.4154,0.01133
53.4204,0.00948
53.4254,0.01063
53.4304,0.01174
53.4354,0.01216
53.4404,0.01135
53.4454,0.01352
53.4504,0.01379
53.4554,0.01634
53.4604,0.01689
53.4654,0.01684
53.4704,0.01611
53.4754,0.01584
53.4804,0.01622
53.4854,0.01558
53.4904,0.01379
53.4954,0.01445
53.5004,0.01242
53.5054,0.01223
53.5104,0.01122
53.5154,0.01121
53.5204,0.01101
53.5254,0.01022
53.5304,0.0114
53.5354,0.01165
53.5404,0.01023
53.5454,0.01024
53.5504,0.01068
53.5554,0.01191
53.5604,0.01013
53.5654,0.0094
53.5704,0.01003
53.5754,0.00954
53.5804,0.00906
53.5854,0.01081
53.5904,0.01183
53.5954,0.01258
53.6004,0.01363
53.6054,0.01566
53.6104,0.01586
53.6154,0.01485
53.6204,0.01454
53.6254,0.01508
53.6304,0.0137
53.6354,0.01123
53.6404,0.00979
53.6454,0.00811
53.6504,0.00872
53.6554,0.00946
53.6604,0.00963
53.6654,0.00743
53.6704,0.006
53.6754,0.00647
53.6804,0.00692
53.6854,0.00644
53.6904,0.00819
53.6954,0.00668
53.7004,0.00703
53.7054,0.00649
53.7104,0.00661
53.7154,0.00887
53.7204,0.00932
53.7254,0.00968
53.7304,0.01087
53.7354,0.00953
53.7404,0.01071
53.7454,0.0106
53.7504,0.01341
53.7554,0.01713
53.7604,0.01664
53.7654,0.01597
53.7704,0.01738
53.7754,0.01879
53.7804,0.01874
53.7854,0.01807
53.7904,0.01824
53.7954,0.01711
53.8004,0.01578
53.8054,0.01531
53.8104,0.01539
53.8154,0.01558
53.8204,0.01376
53.8254,0.01383
53.8304,0.01422
53.8354,0.01402
53.8404,0.01367
53.8454,0.01432
53.8504,0.01648
53.8554,0.01802
53.8604,0.01594
53.8654,0.01682
53.8704,0.01746
53.8754,0.01753
53.8804,0.01776
53.8854,0.0197
53.8904,0.0194
53.8954,0.01898
53.9004,0.02026
53.9054,0.02449
53.9104,0.02461
53.9154,0.02459
53.9204,0.02524
53.9254,0.02596
53.9304,0.02386
53.9354,0.02273
53.9404,0.02084
53.9454,0.01902
53.9504,0.01672
53.9554,0.01554
53.9604,0.01436
53.9654,0.01261
53.9704,0.01194
53.9754,0.01206
53.9804,0.01238
53.9854,0.01302
53.9904,0.01419
53.9954,0.01445
54.0004,0.01665
54.0054,0.01729
54.0104,0.01712
54.0154,0.01813
54.0204,0.01829
54.0254,0.01888
54.0304,0.01769
54.0354,0.0159
54.0404,0.01532
54.0454,0.01243
54.0504,0.01284
54.0554,0.01423
54.0604,0.01221
54.0654,0.01199
54.0704,0.01154
54.0754,0.01287
54.0804,0.01424
54.0854,0.01421
54.0904,0.01586
54.0954,0.01568
54.1004,0.01619
54.1054,0.01604
54.1104,0.0147
54.1154,0.01517
54.1204,0.0148
54.1254,0.01391
54.1304,0.01336
54.1354,0.01253
54.1404,0.01148
54.1454,0.01167
54.1504,0.01356
54.1554,0.01322
54.1604,0.01232
54.1654,0.01159
54.1704,0.01218
54.1754,0.01246
54.1804,0.01288
54.1854,0.01405
54.1904,0.01205
54.1954,0.00905
54.2004,0.00929
54.2054,0.00796
54.2104,0.00828
54.2154,0.0072
54.2204,0.00657
54.2254,0.00559
54.2304,0.00552
54.2354,0.00598
54.2404,0.00631
54.2454,0.00773
54.2504,0.00956
54.2554,0.01018
54.2604,0.00955
54.2654,0.00903
54.2704,0.01006
54.2754,0.00967
54.2804,0.00885
54.2854,0.00976
54.2904,0.00838
54.2954,0.00774
54.3004,0.00716
54.3054,0.00735
54.3104,0.00583
54.3154,0.00502
54.3204,0.00438
54.3254,0.00518
54.3304,0.00369
54.3354,0.00254
54.3404,0.00124
54.3454,8.64E-04
54.3504,0.00221
54.3554,0.00653
54.3604,0.00587
54.3654,0.00515
54.3704,0.00563
54.3754,0.00799
54.3804,0.01002
54.3854,0.01133
54.3904,0.01061
54.3954,0.00955
54.4004,0.00774
54.4054,0.00783
54.4104,0.00723
54.4154,0.00712
54.4204,0.00568
54.4254,0.00491
54.4304,0.00405
54.4354,0.00548
54.4404,0.00497
54.4454,0.00538
54.4504,0.00647
54.4554,0.00858
54.4604,0.00763
54.4654,0.00772
54.4704,0.00864
54.4754,0.01003
54.4804,0.00963
54.4854,0.01052
54.4904,0.01048
54.4954,0.01077
54.5004,0.00999
54.5054,0.01045
54.5104,0.00966
54.5154,0.00841
54.5204,0.00646
54.5254,0.00533
54.5304,0.00388
54.5354,0.00317
54.5404,0.00245
54.5454,0.00353
54.5504,0.00346
54.5554,0.00485
54.5604,0.00509
54.5654,0.00568
54.5704,0.00717
54.5754,0.00823
54.5804,0.0084
54.5854,0.00708
54.5904,0.00467
54.5954,0.00529
54.6004,0.00428
54.6054,0.00257
54.6104,0.00236
54.6154,4.07E-04
54.6204,5.60E-04
54.6254,3.20E-05
54.6304,0.0017
54.6354,0.0042
54.6404,0.00431
54.6454,0.00572
54.6504,0.00815
54.6554,0.01
54.6604,0.00934
54.6654,0.00854
54.6704,0.00838
54.6754,0.00706
54.6804,0.0039
54.6854,0.00274
54.6904,0.00217
54.6954,0.00199
54.7004,4.98E-04
54.7054,0.00243
54.7104,0.00347
54.7154,0.00337
54.7204,0.00436
54.7254,0.00582
54.7304,0.0049
54.7354,0.00453
54.7404,0.00381
54.7454,0.00462
54.7504,0.00624
54.7554,0.00638
54.7604,0.00612
54.7654,0.00477
54.7704,0.00619
54.7754,0.00866
54.7804,0.00869
54.7854,0.0096
54.7904,0.0105
54.7954,0.00959
54.8004,0.0097
54.8054,0.00918
54.8104,0.00939
54.8154,0.00888
54.8204,0.00809
54.8254,0.00808
54.8304,0.00681
54.8354,0.00666
54.8404,0.00824
54.8454,0.0102
54.8504,0.01138
54.8554,0.01336
54.8604,0.01344
54.8654,0.01292
54.8704,0.0135
54.8754,0.01419
54.8804,0.01302
54.8854,0.01027
54.8904,0.00688
54.8954,0.00708
54.9004,0.0056
54.9054,0.00435
54.9104,0.00312
54.9154,0.00298
54.9204,0.00203
54.9254,0.00183
54.9304,0.0031
54.9354,0.00328
54.9404,0.00336
54.9454,0.0038
54.9504,0.00527
54.9554,0.00492
54.9604,0.00245
54.9654,0.00232
54.9704,0.00276
54.9754,0.00195
54.9804,0.00161
54.9854,0.00151
54.9904,9.93E-04
54.9954,2.11E-04
55.0004,0.00247
55.0054,0.00358
55.0104,0.00391
55.0154,0.00279
55.0204,0.00269
55.0254,0.00328
55.0304,0.00326
55.0354,0.00341
55.0404,0.00404
55.0454,0.00408
55.0504,0.00643
55.0554,0.00819
55.0604,0.00771
55.0654,0.00626
55.0704,0.00642
55.0754,0.00615
55.0804,0.00559
55.0854,0.00443
55.0904,0.0028
55.0954,9.57E-04
55.1004,0
55.1054,3.66E-04
55.1104,0.00137
55.1154,0.00114
55.1204,0.00199
55.1254,0.00119
55.1304,3.48E-04
55.1354,0.00191
55.1404,0.00261
55.1454,0.00218
55.1504,0.00371
55.1554,0.00598
55.1604,0.00658
55.1654,0.00589
55.1704,0.0091
55.1754,0.0106
55.1804,0.01104
55.1854,0.01114
55.1904,0.01216
55.1954,0.01123
55.2004,0.01031
55.2054,0.0101
55.2104,0.00883
55.2154,0.0065
55.2204,0.00521
55.2254,0.00377
55.2304,0.003
55.2354,0.00304
55.2404,0.00354
55.2454,0.00322
55.2504,0.00345
55.2554,0.00497
55.2604,0.00445
55.2654,0.0049
55.2704,0.00589
55.2754,0.00787
55.2804,0.0073
55.2854,0.00948
55.2904,0.00869
55.2954,0.00853
55.3004,0.00703
55.3054,0.00805
55.3104,0.01012
55.3154,0.00981
55.3204,0.00841
55.3254,0.00825
55.3304,0.00656
55.3354,0.00594
55.3404,0.00514
55.3454,0.00697
55.3504,0.00735
55.3554,0.00633
55.3604,0.00541
55.3654,0.00398
55.3704,0.00424
55.3754,0.00317
55.3804,0.00447
55.3854,0.00508
55.3904,0.00491
55.3954,0.00497
55.4004,0.00568
55.4054,0.0056
55.4104,0.00604
55.4154,0.00514
55.4204,0.00725
55.4254,0.00813
55.4304,0.00978
55.4354,0.01064
55.4404,0.01066
55.4454,0.00981
55.4504,0.0105
55.4554,0.01158
55.4604,0.00905
55.4654,0.00666
55.4704,0.00629
55.4754,0.00641
55.4804,0.00437
55.4854,0.00329
55.4904,0.00327
55.4954,0.00405
55.5004,0.00321
55.5054,0.00531
55.5104,0.00672
55.5154,0.00597
55.5204,0.00442
55.5254,0.00343
55.5304,0.00443
55.5354,0.0047
55.5404,0.00283
55.5454,0.00361
55.5504,0.00644
55.5554,0.00768
55.5604,0.00611
55.5654,0.00536
55.5704,0.00703
55.5754,0.00626
55.5804,0.00569
55.5854,0.0065
55.5904,0.00457
55.5954,0.00188
55.6004,0
55.6054,7.53E-04
55.6104,0.00122
55.6154,0.0022
55.6204,0.0024
55.6254,0.00221
55.6304,0.00224
55.6354,0.00328
55.6404,0.00465
55.6454,0.00466
55.6504,0.0065
55.6554,0.00645
55.6604,0.00418
55.6654,0.00291
55.6704,0.00347
55.6754,0.00504
55.6804,0.00545
55.6854,0.00668
55.6904,0.00806
55.6954,0.00727
55.7004,0.00758
55.7054,0.0073
55.7104,0.00933
55.7154,0.00861
55.7204,0.00897
55.7254,0.01006
55.7304,0.00932
55.7354,0.00825
55.7404,0.00818
55.7454,0.00949
55.7504,0.01274
55.7554,0.01268
55.7604,0.01197
55.7654,0.01048
55.7704,0.01056
55.7754,0.01074
55.7804,0.01103
55.7854,0.01013
55.7904,0.00896
55.7954,0.00735
55.8004,0.00971
55.8054,0.01186
55.8104,0.01123
55.8154,0.01071
55.8204,0.00896
55.8254,0.00784
55.8304,0.0091
55.8354,0.00978
55.8404,0.00895
55.8454,0.00668
55.8504,0.00707
55.8554,0.00937
55.8604,0.00931
55.8654,0.00966
55.8704,0.01021
55.8754,0.00872
55.8804,0.00698
55.8854,0.00818
55.8904,0.00818
55.8954,0.00752
55.9004,0.00537
55.9054,0.00417
55.9104,0.00555
55.9154,0.00589
55.9204,0.00519
55.9254,0.00506
55.9304,0.00443
55.9354,0.00516
55.9404,0.00417
55.9454,0.00528
55.9504,0.00689
55.9554,0.00769
55.9604,0.00742
55.9654,0.00987
55.9704,0.01036
55.9754,0.01035
55.9804,0.01011
55.9854,0.01128
55.9904,0.01044
55.9954,0.00914
56.0004,0.0074
56.0054,0.0085
56.0104,0.00705
56.0154,0.00645
56.0204,0.0078
56.0254,0.00744
56.0304,0.00722
56.0354,0.00864
56.0404,0.00931
56.0454,0.01013
56.0504,0.00995
56.0554,0.01124
56.0604,0.0117
56.0654,0.00927
56.0704,0.00895
56.0754,0.00816
56.0804,0.00686
56.0854,0.0077
56.0904,0.00735
56.0954,0.00597
56.1004,0.00634
56.1054,0.00684
56.1104,0.00831
56.1154,0.00854
56.1204,0.00903
56.1254,0.00977
56.1304,0.00728
56.1354,0.00751
56.1404,0.00747
56.1454,0.00669
56.1504,0.00733
56.1554,0.00657
56.1604,0.00548
56.1654,0.00416
56.1704,8.93E-04
56.1754,0.00152
56.1804,0.00124
56.1854,0.0032
56.1904,0.00368
56.1954,0.00322
56.2004,0.00415
56.2054,0.00409
56.2104,0.00408
56.2154,0.00478
56.2204,0.00499
56.2254,0.00379
56.2304,0.00153
56.2354,0.00198
56.2404,0.00211
56.2454,0.00155
56.2504,0.00196
56.2554,0.00279
56.2604,0.00349
56.2654,0.00288
56.2704,0.00337
56.2754,0.00581
56.2804,0.00569
56.2854,0.00742
56.2904,0.00924
56.2954,0.01166
56.3004,0.01248
56.3054,0.01318
56.3104,0.0135
56.3154,0.01275
56.3204,0.01183
56.3254,0.01235
56.3304,0.01068
56.3354,0.00999
56.3404,0.00924
56.3454,0.00907
56.3504,0.00854
56.3554,0.00933
56.3604,0.01013
56.3654,0.00797
56.3704,0.00599
56.3754,0.00553
56.3804,0.00474
56.3854,0.00541
56.3904,0.00617
56.3954,0.00639
56.4004,0.00737
56.4054,0.00652
56.4104,0.00778
56.4154,0.00858
56.4204,0.00923
56.4254,0.00914
56.4304,0.00604
56.4354,0.00468
56.4404,0.00592
56.4454,0.00581
56.4504,0.00605
56.4554,0.00751
56.4604,0.0078
56.4654,0.0072
56.4704,0.00786
56.4754,0.00829
56.4804,0.00769
56.4854,0.00661
56.4904,0.00693
56.4954,0.00796
56.5004,0.00679
56.5054,0.00675
56.5104,0.00769
56.5154,0.00894
56.5204,0.00975
56.5254,0.01134
56.5304,0.01271
56.5354,0.01277
56.5404,0.01246
56.5454,0.01269
56.5504,0.01248
56.5554,0.01165
56.5604,0.00814
56.5654,0.00727
56.5704,0.00609
56.5754,0.00448
56.5804,0.004
56.5854,0.00585
56.5904,0.00583
56.5954,0.00544
56.6004,0.00523
56.6054,0.00647
56.6104,0.00643
56.6154,0.00629
56.6204,0.00742
56.6254,0.00681
56.6304,0.00504
56.6354,0.0049
56.6404,0.00407
56.6454,0.00409
56.6504,0.00487
56.6554,0.00573
56.6604,0.00547
56.6654,0.00356
56.6704,0.00476
56.6754,0.00379
56.6804,0.00236
56.6854,0.00327
56.6904,0.00314
56.6954,0.00253
56.7004,0.00164
56.7054,0.00153
56.7104,0.00376
56.7154,0.00311
56.7204,0.00363
56.7254,0.00514
56.7304,0.00537
56.7354,0.00627
56.7404,0.00613
56.7454,0.00776
56.7504,0.00954
56.7554,0.00871
56.7604,0.00834
56.7654,0.00772
56.7704,0.00781
56.7754,0.00887
56.7804,0.00869
56.7854,0.00999
56.7904,0.00845
56.7954,0.00712
56.8004,0.00685
56.8054,0.00639
56.8104,0.00804
56.8154,0.00755
56.8204,0.00726
56.8254,0.00689
56.8304,0.00756
56.8354,0.00788
56.8404,0.00833
56.8454,0.0101
56.8504,0.01041
56.8554,0.01028
56.8604,0.0096
56.8654,0.00844
56.8704,0.00842
56.8754,0.00614
56.8804,0.00686
56.8854,0.00873
56.8904,0.00637
56.8954,0.00514
56.9004,0.00558
56.9054,0.00609
56.9104,0.00484
56.9154,0.00476
56.9204,0.00632
56.9254,0.00709
56.9304,0.00492
56.9354,0.00584
56.9404,0.00798
56.9454,0.00656
56.9504,0.00742
56.9554,0.0109
56.9604,0.00968
56.9654,0.00747
56.9704,0.00736
56.9754,0.00704
56.9804,0.00567
56.9854,0.00535
56.9904,0.00631
56.9954,0.00595
57.0004,0.00446
57.0054,0.00632
57.0104,0.00761
57.0154,0.00462
57.0204,0.00424
57.0254,0.00447
57.0304,0.00487
57.0354,0.00609
57.0404,0.00676
57.0454,0.00513
57.0504,0.00552
57.0554,0.00644
57.0604,0.00773
57.0654,0.00797
57.0704,0.0098
57.0754,0.01009
57.0804,0.00955
57.0854,0.01039
57.0904,0.01262
57.0954,0.0118
57.1004,0.01193
57.1054,0.01227
57.1104,0.01297
57.1154,0.01316
57.1204,0.01124
57.1254,0.008
57.1304,0.00658
57.1354,0.00567
57.1404,0.00473
57.1454,0.0033
57.1504,0.00539
57.1554,0.00708
57.1604,0.00672
57.1654,0.00599
57.1704,0.00866
57.1754,0.00712
57.1804,0.00677
57.1854,0.00792
57.1904,0.00606
57.1954,0.00291
57.2004,0.00181
57.2054,5.33E-04
57.2104,0.00145
57.2154,0.00137
57.2204,0.00291
57.2254,0.00269
57.2304,0.00245
57.2354,0.00419
57.2404,0.00469
57.2454,0.00454
57.2504,0.00699
57.2554,0.00825
57.2604,0.00729
57.2654,0.00794
57.2704,0.00974
57.2754,0.01017
57.2804,0.01177
57.2854,0.01417
57.2904,0.01394
57.2954,0.01144
57.3004,0.01107
57.3054,0.01224
57.3104,0.01189
57.3154,0.01309
57.3204,0.01523
57.3254,0.01476
57.3304,0.01434
57.3354,0.01557
57.3404,0.01628
57.3454,0.01629
57.3504,0.01553
57.3554,0.01483
57.3604,0.01189
57.3654,0.00709
57.3704,0.00622
57.3754,0.00461
57.3804,0.00253
57.3854,0.00166
57.3904,0
57.3954,0.00226
57.4004,0.00415
57.4054,0.00446
57.4104,0.0078
57.4154,0.00872
57.4204,0.00977
57.4254,0.01064
57.4304,0.01082
57.4354,0.01135
57.4404,0.00865
57.4454,0.00783
57.4504,0.00749
57.4554,0.00625
57.4604,0.0039
57.4654,0.00198
57.4704,0.0032
57.4754,0.00384
57.4804,0.00514
57.4854,0.00658
57.4904,0.00652
57.4954,0.0074
57.5004,0.00705
57.5054,0.01053
57.5104,0.01298
57.5154,0.01265
57.5204,0.01433
57.5254,0.01317
57.5304,0.01274
57.5354,0.01279
57.5404,0.01199
57.5454,0.01322
57.5504,0.01171
57.5554,0.01116
57.5604,0.00953
57.5654,0.00793
57.5704,0.00892
57.5754,0.0073
57.5804,0.00585
57.5854,0.0074
57.5904,0.00827
57.5954,0.00961
57.6004,0.00986
57.6054,0.01158
57.6104,0.01097
57.6154,0.01024
57.6204,0.0103
57.6254,0.01133
57.6304,0.01198
57.6354,0.01004
57.6404,0.00692
57.6454,0.00672
57.6504,0.00434
57.6554,0.00468
57.6604,0.00408
57.6654,0.00364
57.6704,0.00271
57.6754,2.98E-05
57.6804,0
57.6854,0.00292
57.6904,0.00285
57.6954,0.00501
57.7004,0.00533
57.7054,0.00685
57.7104,0.00722
57.7154,0.0092
57.7204,0.00913
57.7254,0.00953
57.7304,0.00737
57.7354,0.00674
57.7404,0.00635
57.7454,0.00577
57.7504,0.00593
57.7554,0.00825
57.7604,0.00677
57.7654,0.00598
57.7704,0.00471
57.7754,0.00541
57.7804,0.00578
57.7854,0.00615
57.7904,0.00889
57.7954,0.0095
57.8004,0.00903
57.8054,0.00817
57.8104,0.00982
57.8154,0.01092
57.8204,0.01032
57.8254,0.00977
57.8304,0.00952
57.8354,0.00763
57.8404,0.00537
57.8454,0.00547
57.8504,0.00706
57.8554,0.0073
57.8604,0.00622
57.8654,0.00674
57.8704,0.00764
57.8754,0.00546
57.8804,0.00495
57.8854,0.00672
57.8904,0.00597
57.8954,0.00463
57.9004,0.00353
57.9054,0.00438
57.9104,0.0049
57.9154,0.00406
57.9204,0.0056
57.9254,0.00512
57.9304,0.00416
57.9354,0.0041
57.9404,0.00408
57.9454,0.00479
57.9504,0.00593
57.9554,0.00543
57.9604,0.00404
57.9654,0.00352
57.9704,0.00556
57.9754,0.00666
57.9804,0.00795
57.9854,0.00881
57.9904,0.00973
57.9954,0.00921
58.0004,0.00867
58.0054,0.00946
58.0104,0.0096
58.0154,0.00892
58.0204,0.0083
58.0254,0.00668
58.0304,0.00548
58.0354,0.00399
58.0404,0.00192
58.0454,0.00202
58.0504,0.00293
58.0554,0.00456
58.0604,0.00183
58.0654,4.61E-04
58.0704,0.00195
58.0754,0.0037
58.0804,0.00393
58.0854,0.00702
58.0904,0.00748
58.0954,0.00825
58.1004,0.00905
58.1054,0.01082
58.1104,0.01173
58.1154,0.01126
58.1204,0.01124
58.1254,0.01201
58.1304,0.01099
58.1354,0.01044
58.1404,0.01021
58.1454,0.00875
58.1504,0.00824
58.1554,0.00825
58.1604,0.00717
58.1654,0.00622
58.1704,0.00623
58.1754,0.00522
58.1804,0.00552
58.1854,0.00505
58.1904,0.0047
58.1954,0.00704
58.2004,0.00685
58.2054,0.00584
58.2104,0.00597
58.2154,0.00474
58.2204,0.00576
58.2254,0.00559
58.2304,0.00524
58.2354,0.00593
58.2404,0.00533
58.2454,0.00533
58.2504,0.0069
58.2554,0.00694
58.2604,0.00781
58.2654,0.00668
58.2704,0.00729
58.2754,0.00663
58.2804,0.00361
58.2854,0.00243
58.2904,0.00215
58.2954,0.0024
58.3004,0.00114
58.3054,3.07E-04
58.3104,0.00153
58.3154,5.60E-04
58.3204,0.002
58.3254,0.00489
58.3304,0.00554
58.3354,0.0047
58.3404,0.00457
58.3454,0.0068
58.3504,0.00779
58.3554,0.00858
58.3604,0.00897
58.3654,0.00651
58.3704,0.0066
58.3754,0.00804
58.3804,0.01001
58.3854,0.01145
58.3904,0.01051
58.3954,0.01013
58.4004,0.00866
58.4054,0.00822
58.4104,0.01024
58.4154,0.00933
58.4204,0.00793
58.4254,0.00662
58.4304,0.00407
58.4354,0.00552
58.4404,0.00722
58.4454,0.00693
58.4504,0.00668
58.4554,0.00482
58.4604,0.00527
58.4654,0.00476
58.4704,0.00498
58.4754,0.00415
58.4804,0.0022
58.4854,5.68E-04
58.4904,9.34E-04
58.4954,0.00269
58.5004,0.00411
58.5054,0.00355
58.5104,0.00279
58.5154,0.00275
58.5204,0.00499
58.5254,0.00613
58.5304,0.00669
58.5354,0.00799
58.5404,0.00808
58.5454,0.00906
58.5504,0.01067
58.5554,0.01198
58.5604,0.01205
58.5654,0.00969
58.5704,0.00979
58.5754,0.00861
58.5804,0.00815
58.5854,0.01028
58.5904,0.00972
58.5954,0.00833
58.6004,0.00756
58.6054,0.0081
58.6104,0.00983
58.6154,0.00909
58.6204,0.0107
58.6254,0.0097
58.6304,0.0073
58.6354,0.00711
58.6404,0.0051
58.6454,0.00586
58.6504,0.00593
58.6554,0.00571
58.6604,0.00596
58.6654,0.00466
58.6704,0.00473
58.6754,0.00399
58.6804,0.00347
58.6854,0.00599
58.6904,0.00598
58.6954,0.00692
58.7004,0.007
58.7054,0.0078
58.7104,0.00845
58.7154,0.01008
58.7204,0.00991
58.7254,0.00956
58.7304,0.00966
58.7354,0.00999
58.7404,0.0088
58.7454,0.0103
58.7504,0.01003
58.7554,0.00998
58.7604,0.00919
58.7654,0.0095
58.7704,0.00966
58.7754,0.00857
58.7804,0.00742
58.7854,0.00795
58.7904,0.00603
58.7954,0.00568
58.8004,0.00517
58.8054,0.00591
58.8104,0.00474
58.8154,0.00575
58.8204,0.0069
58.8254,0.00723
58.8304,0.00525
58.8354,0.00639
58.8404,0.00574
58.8454,0.00572
58.8504,0.00341
58.8554,0.00436
58.8604,0.00447
58.8654,0.00325
58.8704,0.00432
58.8754,0.0062
58.8804,0.00546
58.8854,0.00612
58.8904,0.00613
58.8954,0.00663
58.9004,0.00666
58.9054,0.0062
58.9104,0.00739
58.9154,0.00572
58.9204,0.00594
58.9254,0.0067
58.9304,0.00628
58.9354,0.00634
58.9404,0.00741
58.9454,0.00881
58.9504,0.00844
58.9554,0.00794
58.9604,0.00763
58.9654,0.00625
58.9704,0.0058
58.9754,0.00599
58.9804,0.00674
58.9854,0.00825
58.9904,0.00778
58.9954,0.01012
59.0004,0.01123
59.0054,0.01159
59.0104,0.01141
59.0154,0.0107
59.0204,0.0108
59.0254,0.01124
59.0304,0.00921
59.0354,0.00774
59.0404,0.00701
59.0454,0.00723
59.0504,0.00874
59.0554,0.01041
59.0604,0.01107
59.0654,0.01119
59.0704,0.01069
59.0754,0.01105
59.0804,0.01267
59.0854,0.0111
59.0904,0.00954
59.0954,0.00902
59.1004,0.00945
59.1054,0.00911
59.1104,0.00873
59.1154,0.00884
59.1204,0.00704
59.1254,0.00643
59.1304,0.00683
59.1354,0.00617
59.1404,0.00659
59.1454,0.00641
59.1504,0.00745
59.1554,0.00815
59.1604,0.00607
59.1654,0.0063
59.1704,0.00703
59.1754,0.00681
59.1804,0.00701
59.1854,0.00666
59.1904,0.0048
59.1954,0.0033
59.2004,0.00257
59.2054,0.00339
59.2104,0.00268
59.2154,0.00156
59.2204,0
59.2254,7.56E-04
59.2304,0.00132
59.2354,0.00195
59.2404,0.00298
59.2454,0.00324
59.2504,0.00398
59.2554,0.00697
59.2604,0.00654
59.2654,0.00745
59.2704,0.00811
59.2754,0.00423
59.2804,0.00422
59.2854,0.0043
59.2904,0.00584
59.2954,0.00717
59.3004,0.00614
59.3054,0.00621
59.3104,0.00691
59.3154,0.00467
59.3204,0.0072
59.3254,0.00587
59.3304,0.00427
59.3354,0.00311
59.3404,0.00261
59.3454,0.00328
59.3504,0.00451
59.3554,0.00502
59.3604,0.00483
59.3654,0.00343
59.3704,0.00494
59.3754,0.00589
59.3804,0.00609
59.3854,0.00611
59.3904,0.00633
59.3954,0.00686
59.4004,0.0077
59.4054,0.00981
59.4104,0.01027
59.4154,0.01041
59.4204,0.01191
59.4254,0.01266
59.4304,0.01302
59.4354,0.011
59.4404,0.00975
59.4454,0.00802
59.4504,0.00744
59.4554,0.00934
59.4604,0.00884
59.4654,0.00604
59.4704,0.0043
59.4754,0.00276
59.4804,0.00549
59.4854,0.00755
59.4904,0.00911
59.4954,0.00981
59.5004,0.01021
59.5054,0.01208
59.5104,0.01504
59.5154,0.01469
59.5204,0.01495
59.5254,0.01395
59.5304,0.01187
59.5354,0.01144
59.5404,0.00974
59.5454,0.00953
59.5504,0.00883
59.5554,0.00827
59.5604,0.00837
59.5654,0.00819
59.5704,0.00831
59.5754,0.00754
59.5804,0.00564
59.5854,0.00761
59.5904,0.00791
59.5954,0.00767
59.6004,0.00801
59.6054,0.00864
59.6104,0.00815
59.6154,0.00714
59.6204,0.00706
59.6254,0.00678
59.6304,0.00546
59.6354,0.00518
59.6404,0.00377
59.6454,0.00169
59.6504,0.00172
59.6554,0.00232
59.6604,6.58E-04
59.6654,0
59.6704,0.00228
59.6754,0.00359
59.6804,0.00384
59.6854,0.00636
59.6904,0.00785
59.6954,0.00805
59.7004,0.00838
59.7054,0.0094
59.7104,0.01006
59.7154,0.00938
59.7204,0.00811
59.7254,0.00802
59.7304,0.00655
59.7354,0.00494
59.7404,0.00357
59.7454,0.00466
59.7504,0.00696
59.7554,0.00839
59.7604,0.00761
59.7654,0.00497
59.7704,0.00442
59.7754,0.00452
59.7804,0.00478
59.7854,0.00538
59.7904,0.00391
59.7954,0.00231
59.8004,0.00126
59.8054,0.00139
59.8104,0.00373
59.8154,0.00417
59.8204,0.00424
59.8254,0.00412
59.8304,0.00442
59.8354,0.00404
59.8404,0.00408
59.8454,0.00424
59.8504,0.00457
59.8554,0.00477
59.8604,0.0037
59.8654,0.00335
59.8704,0.00427
59.8754,0.00374
59.8804,0.00368
59.8854,0.00396
59.8904,0.00492
59.8954,0.00559
59.9004,0.00611
59.9054,0.00499
59.9104,0.00531
59.9154,0.00628
59.9204,0.00708
59.9254,0.00752
59.9304,0.00672
59.9354,0.00544
59.9404,0.00354
59.9454,0.0035
59.9504,0.00577
59.9554,0.00708
59.9604,0.00675
59.9654,0.00562
59.9704,0.00506
59.9754,0.00599
59.9804,0.00616
59.9854,0.00799
59.9904,0.00749
59.9954,0.00617
60.0004,0.0049
60.0054,0.00329
60.0104,0.00364
60.0154,0.00441
60.0204,0.00396
60.0254,0.00287
60.0304,0.00275
60.0354,0.00437
60.0404,0.00416
60.0454,0.00345
60.0504,0.00342
60.0554,0.00399
60.0604,0.00399
60.0654,0.00317
60.0704,0.00599
60.0754,0.00583
60.0804,0.00504
60.0854,0.00627
60.0904,0.00615
60.0954,0.00861
60.1004,0.00883
60.1054,0.01029
60.1104,0.01205
60.1154,0.01154
60.1204,0.01178
60.1254,0.01107
60.1304,0.01016
60.1354,0.01186
60.1404,0.00917
60.1454,0.00961
60.1504,0.00782
60.1554,0.00636
60.1604,0.0051
60.1654,0.00473
60.1704,0.00399
60.1754,0.00416
60.1804,0.00259
60.1854,0.00397
60.1904,0.00365
60.1954,0.00554
60.2004,0.0073
60.2054,0.00657
60.2104,0.00619
60.2154,0.00615
60.2204,0.00659
60.2254,0.00766
60.2304,0.00836
60.2354,0.00931
60.2404,0.00706
60.2454,0.00569
60.2504,0.00654
60.2554,0.00695
60.2604,0.00715
60.2654,0.00707
60.2704,0.00757
60.2754,0.00721
60.2804,0.00588
60.2854,0.00622
60.2904,0.00603
60.2954,0.00595
60.3004,0.00615
60.3054,0.00769
60.3104,0.00628
60.3154,0.00545
60.3204,0.00552
60.3254,0.00558
60.3304,0.00587
60.3354,0.00697
60.3404,0.00647
60.3454,0.00583
60.3504,0.00549
60.3554,0.00728
60.3604,0.00614
60.3654,0.00453
60.3704,0.00434
60.3754,0.00398
60.3804,0.00291
60.3854,0.00432
60.3904,0.00296
60.3954,0.00178
60.4004,9.50E-04
60.4054,0.00173
60.4104,0.00303
60.4154,0.00306
60.4204,0.00389
60.4254,0.00411
60.4304,0.00352
60.4354,0.00481
60.4404,0.00482
60.4454,0.00494
60.4504,0.00747
60.4554,0.00778
60.4604,0.00665
60.4654,0.00673
60.4704,0.00792
60.4754,0.00815
60.4804,0.0074
60.4854,0.00817
60.4904,0.00779
60.4954,0.00474
60.5004,0.00441
60.5054,0.00656
60.5104,0.00631
60.5154,0.00602
60.5204,0.00695
60.5254,0.00954
60.5304,0.01003
60.5354,0.01061
60.5404,0.01162
60.5454,0.01211
60.5504,0.01157
60.5554,0.01208
60.5604,0.01043
60.5654,0.00966
60.5704,0.0079
60.5754,0.0063
60.5804,0.00682
60.5854,0.00896
60.5904,0.00851
60.5954,0.00907
60.6004,0.00897
60.6054,0.00931
60.6104,0.00837
60.6154,0.00888
60.6204,0.01115
60.6254,0.0121
60.6304,0.01145
60.6354,0.01339
60.6404,0.0129
60.6454,0.01408
60.6504,0.01376
60.6554,0.01444
60.6604,0.01454
60.6654,0.01208
60.6704,0.01203
60.6754,0.01147
60.6804,0.0098
60.6854,0.01163
60.6904,0.01142
60.6954,0.01332
60.7004,0.01259
60.7054,0.01255
60.7104,0.01391
60.7154,0.01284
60.7204,0.01142
60.7254,0.01162
60.7304,0.00855
60.7354,0.00581
60.7404,0.0058
60.7454,0.00806
60.7504,0.00862
60.7554,0.00931
60.7604,0.00871
60.7654,0.00891
60.7704,0.00798
60.7754,0.0088
60.7804,0.00928
60.7854,0.00923
60.7904,0.00886
60.7954,0.00816
60.8004,0.00841
60.8054,0.00827
60.8104,0.00927
60.8154,0.00821
60.8204,0.00748
60.8254,0.00924
60.8304,0.00895
60.8354,0.0081
60.8404,0.0079
60.8454,0.00661
60.8504,0.00742
60.8554,0.00635
60.8604,0.00627
60.8654,0.00611
60.8704,0.00305
60.8754,0.00193
60.8804,0.00184
60.8854,0.00266
60.8904,0.00352
60.8954,0.00225
60.9004,0.00154
60.9054,0.00235
60.9104,0.00355
60.9154,0.00732
60.9204,0.00849
60.9254,0.00927
60.9304,0.00967
60.9354,0.00911
60.9404,0.00992
60.9454,0.01108
60.9504,0.01198
60.9554,0.01426
60.9604,0.01185
60.9654,0.01176
60.9704,0.01197
60.9754,0.01034
60.9804,0.01043
60.9854,0.01116
60.9904,0.01189
60.9954,0.01161
61.0004,0.00952
61.0054,0.0111
61.0104,0.01144
61.0154,0.01076
61.0204,0.01329
61.0254,0.01314
61.0304,0.01344
61.0354,0.01138
61.0404,0.01044
61.0454,0.01006
61.0504,0.00902
61.0554,0.00791
61.0604,0.00561
61.0654,0.00239
61.0704,0.00227
61.0754,6.14E-04
61.0804,0
61.0854,0.00191
61.0904,0.00146
61.0954,0.00176
61.1004,0.00461
61.1054,0.00582
61.1104,0.00637
61.1154,0.00617
61.1204,0.00648
61.1254,0.00752
61.1304,0.00498
61.1354,0.00715
61.1404,0.00905
61.1454,0.00794
61.1504,0.00946
61.1554,0.01028
61.1604,0.01132
61.1654,0.01082
61.1704,0.01269
61.1754,0.01451
61.1804,0.01141
61.1854,0.00983
61.1904,0.00799
61.1954,0.00707
61.2004,0.00912
61.2054,0.01006
61.2104,0.00964
61.2154,0.00881
61.2204,0.00958
61.2254,0.01191
61.2304,0.01237
61.2354,0.01413
61.2404,0.01558
61.2454,0.0128
61.2504,0.01186
61.2554,0.0125
61.2604,0.01309
61.2654,0.01358
61.2704,0.01406
61.2754,0.01366
61.2804,0.01206
61.2854,0.01074
61.2904,0.01304
61.2954,0.01296
61.3004,0.01421
61.3054,0.0139
61.3104,0.01265
61.3154,0.01119
61.3204,0.00998
61.3254,0.0106
61.3304,0.01154
61.3354,0.00895
61.3404,0.00824
61.3454,0.00784
61.3504,0.00762
61.3554,0.00937
61.3604,0.0086
61.3654,0.00897
61.3704,0.00906
61.3754,0.00819
61.3804,0.00996
61.3854,0.01076
61.3904,0.0111
61.3954,0.01203
61.4004,0.01146
61.4054,0.01326
61.4104,0.01442
61.4154,0.0161
61.4204,0.01791
61.4254,0.0185
61.4304,0.018
61.4354,0.01751
61.4404,0.01702
61.4454,0.01736
61.4504,0.01899
61.4554,0.01947
61.4604,0.0178
61.4654,0.01747
61.4704,0.01767
61.4754,0.01922
61.4804,0.0191
61.4854,0.01897
61.4904,0.01783
61.4954,0.01613
61.5004,0.01716
61.5054,0.01758
61.5104,0.01681
61.5154,0.01866
61.5204,0.01746
61.5254,0.01731
61.5304,0.01609
61.5354,0.01584
61.5404,0.01438
61.5454,0.01255
61.5504,0.01459
61.5554,0.0161
61.5604,0.01322
61.5654,0.01313
61.5704,0.01364
61.5754,0.01364
61.5804,0.01343
61.5854,0.01414
61.5904,0.01425
61.5954,0.01327
61.6004,0.01156
61.6054,0.01156
61.6104,0.01038
61.6154,0.01057
61.6204,0.01073
61.6254,0.01052
61.6304,0.01208
61.6354,0.0116
61.6404,0.01053
61.6454,0.01172
61.6504,0.01249
61.6554,0.01431
61.6604,0.0142
61.6654,0.01241
61.6704,0.01241
61.6754,0.01147
61.6804,0.01176
61.6854,0.01253
61.6904,0.01181
61.6954,0.0116
61.7004,0.01169
61.7054,0.01133
61.7104,0.01411
61.7154,0.01514
61.7204,0.01475
61.7254,0.01495
61.7304,0.01314
61.7354,0.01202
61.7404,0.01222
61.7454,0.01255
61.7504,0.01344
61.7554,0.0146
61.7604,0.01216
61.7654,0.01104
61.7704,0.01213
61.7754,0.01361
61.7804,0.01549
61.7854,0.01622
61.7904,0.01714
61.7954,0.01624
61.8004,0.01437
61.8054,0.01632
61.8104,0.01817
61.8154,0.0182
61.8204,0.01779
61.8254,0.01623
61.8304,0.016
61.8354,0.01441
61.8404,0.01606
61.8454,0.01709
61.8504,0.01854
61.8554,0.01804
61.8604,0.0176
61.8654,0.01702
61.8704,0.0176
61.8754,0.01611
61.8804,0.01648
61.8854,0.01755
61.8904,0.01858
61.8954,0.01987
61.9004,0.02131
61.9054,0.02191
61.9104,0.02446
61.9154,0.02691
61.9204,0.02835
61.9254,0.02837
61.9304,0.02675
61.9354,0.02646
61.9404,0.02492
61.9454,0.02349
61.9504,0.02341
61.9554,0.02275
61.9604,0.01921
61.9654,0.01869
61.9704,0.02079
61.9754,0.02256
61.9804,0.02208
61.9854,0.02279
61.9904,0.0239
61.9954,0.0239
62.0004,0.02423
62.0054,0.02522
62.0104,0.02422
62.0154,0.0223
62.0204,0.01978
62.0254,0.01877
62.0304,0.01688
62.0354,0.01558
62.0404,0.01433
62.0454,0.01395
62.0504,0.01535
62.0554,0.01723
62.0604,0.01635
62.0654,0.0161
62.0704,0.01724
62.0754,0.01882
62.0804,0.01821
62.0854,0.01878
62.0904,0.01725
62.0954,0.01375
62.1004,0.01096
62.1054,0.00965
62.1104,0.00974
62.1154,0.00887
62.1204,0.00597
62.1254,0.00454
62.1304,0.00409
62.1354,0.0043
62.1404,0.0058
62.1454,0.00835
62.1504,0.00987
62.1554,0.00974
62.1604,0.00792
62.1654,0.00694
62.1704,0.00931
62.1754,0.00739
62.1804,0.00418
62.1854,0.00507
62.1904,0.00541
62.1954,0.00567
62.2004,0.00507
62.2054,0.00539
62.2104,0.00618
62.2154,0.00398
62.2204,0.00561
62.2254,0.00784
62.2304,0.00612
62.2354,0.00293
62.2404,0.00168
62.2454,0.00177
62.2504,0.0033
62.2554,0.00591
62.2604,0.00771
62.2654,0.00683
62.2704,0.00794
62.2754,0.01057
62.2804,0.01138
62.2854,0.01163
62.2904,0.01115
62.2954,0.01065
62.3004,0.0086
62.3054,0.00683
62.3104,0.008
62.3154,0.0065
62.3204,0.00442
62.3254,0.00381
62.3304,0.00374
62.3354,0.005
62.3404,0.00412
62.3454,0.00382
62.3504,0.00446
62.3554,0.00443
62.3604,0.00476
62.3654,0.00372
62.3704,0.00441
62.3754,0.00361
62.3804,0.00365
62.3854,0.00543
62.3904,0.00632
62.3954,0.00738
62.4004,0.00659
62.4054,0.00772
62.4104,0.00838
62.4154,0.00868
62.4204,0.00982
62.4254,0.00901
62.4304,0.00917
62.4354,0.00897
62.4404,0.00984
62.4454,0.01008
62.4504,0.00823
62.4554,0.00759
62.4604,0.00738
62.4654,0.006
62.4704,0.00516
62.4754,0.00338
62.4804,0.00231
62.4854,6.83E-04
62.4904,2.80E-05
62.4954,0.00202
62.5004,0.00361
62.5054,0.00215
62.5104,0.00283
62.5154,0.00306
62.5204,0.00214
62.5254,0.00202
62.5304,0.00225
62.5354,0.0018
62.5404,0.00199
62.5454,0.00201
62.5504,0.00338
62.5554,0.00489
62.5604,0.00573
62.5654,0.00714
62.5704,0.00728
62.5754,0.00742
62.5804,0.00861
62.5854,0.00703
62.5904,0.00603
62.5954,0.00627
62.6004,0.00714
62.6054,0.00675
62.6104,0.00649
62.6154,0.00883
62.6204,0.00816
62.6254,0.0076
62.6304,0.00718
62.6354,0.00761
62.6404,0.00675
62.6454,0.00379
62.6504,0.00418
62.6554,0.00363
62.6604,0.00164
62.6654,0.00259
62.6704,0.00572
62.6754,0.00675
62.6804,0.00683
62.6854,0.00821
62.6904,0.00685
62.6954,0.00662
62.7004,0.00638
62.7054,0.00545
62.7104,0.00268
62.7154,0
62.7204,8.50E-04
62.7254,4.96E-04
62.7304,2.63E-04
62.7354,0.00312
62.7404,0.00289
62.7454,0.00413
62.7504,0.00656
62.7554,0.00975
62.7604,0.00898
62.7654,0.00686
62.7704,0.00742
62.7754,0.00766
62.7804,0.00601
62.7854,0.00494
62.7904,0.00373
62.7954,0.00285
62.8004,0.00175
62.8054,0.00193
62.8104,0.00261
62.8154,0.00146
62.8204,9.93E-04
62.8254,0.00232
62.8304,0.00468
62.8354,0.00596
62.8404,0.00488
62.8454,0.00518
62.8504,0.00627
62.8554,0.00616
62.8604,0.00608
62.8654,0.00583
62.8704,0.00547
62.8754,0.00584
62.8804,0.00635
62.8854,0.00721
62.8904,0.00668
62.8954,0.00607
62.9004,0.00829
62.9054,0.00825
62.9104,0.00748
62.9154,0.00757
62.9204,0.00556
62.9254,0.00669
62.9304,0.00617
62.9354,0.00606
62.9404,0.00587
62.9454,0.0043
62.9504,0.0065
62.9554,0.00802
62.9604,0.00822
62.9654,0.00928
62.9704,0.0086
62.9754,0.00915
62.9804,0.00899
62.9854,0.00876
62.9904,0.00862
62.9954,0.00864
63.0004,0.00829
63.0054,0.00637
63.0104,0.00586
63.0154,0.00495
63.0204,0.00459
63.0254,0.00498
63.0304,0.00419
63.0354,0.00398
63.0404,0.00233
63.0454,0.00268
63.0504,0.00534
63.0554,0.00652
63.0604,0.00479
63.0654,0.00522
63.0704,0.00502
63.0754,0.00542
63.0804,0.00425
63.0854,0.00506
63.0904,0.00459
63.0954,0.00483
63.1004,0.00497
63.1054,0.00703
63.1104,0.00617
63.1154,0.00749
63.1204,0.00827
63.1254,0.00809
63.1304,0.00701
63.1354,0.00631
63.1404,0.00536
63.1454,0.00448
63.1504,0.00302
63.1554,0.00298
63.1604,2.95E-04
63.1654,0
63.1704,0.00155
63.1754,0.00342
63.1804,0.00312
63.1854,0.00376
63.1904,0.0038
63.1954,0.00671
63.2004,0.00931
63.2054,0.01195
63.2104,0.01193
63.2154,0.01466
63.2204,0.01465
63.2254,0.01611
63.2304,0.01438
63.2354,0.01369
63.2404,0.01193
63.2454,0.01013
63.2504,0.01002
63.2554,0.01081
63.2604,0.00793
63.2654,0.00572
63.2704,0.00712
63.2754,0.00873
63.2804,0.0095
63.2854,0.00972
63.2904,0.01
63.2954,0.00965
63.3004,0.00845
63.3054,0.00997
63.3104,0.01172
63.3154,0.00934
63.3204,0.01014
63.3254,0.01056
63.3304,0.00987
63.3354,0.01006
63.3404,0.00746
63.3454,0.00846
63.3504,0.00855
63.3554,0.00946
63.3604,0.0103
63.3654,0.00841
63.3704,0.00778
63.3754,0.0071
63.3804,0.0075
63.3854,0.01178
63.3904,0.01199
63.3954,0.01247
63.4004,0.01262
63.4054,0.01257
63.4104,0.0119
63.4154,0.01276
63.4204,0.01546
63.4254,0.01547
63.4304,0.0134
63.4354,0.01284
63.4404,0.0118
63.4454,0.0112
63.4504,0.0123
63.4554,0.0155
63.4604,0.01529
63.4654,0.01392
63.4704,0.01566
63.4754,0.01705
63.4804,0.01752
63.4854,0.017
63.4904,0.0169
63.4954,0.01607
63.5004,0.01528
63.5054,0.01561
63.5104,0.01504
63.5154,0.01175
63.5204,0.01045
63.5254,0.01038
63.5304,0.01005
63.5354,0.00877
63.5404,0.00858
63.5454,0.00854
63.5504,0.00813
63.5554,0.00919
63.5604,0.00877
63.5654,0.00913
63.5704,0.00936
63.5754,0.01031
63.5804,0.01167
63.5854,0.0124
63.5904,0.01154
63.5954,0.01315
63.6004,0.01304
63.6054,0.01417
63.6104,0.01319
63.6154,0.01307
63.6204,0.01192
63.6254,0.00929
63.6304,0.00799
63.6354,0.00944
63.6404,0.00957
63.6454,0.00975
63.6504,0.01096
63.6554,0.01234
63.6604,0.00979
63.6654,0.00922
63.6704,0.01092
63.6754,0.01072
63.6804,0.00821
63.6854,0.00643
63.6904,0.00742
63.6954,0.00705
63.7004,0.00808
63.7054,0.01104
63.7104,0.01154
63.7154,0.01157
63.7204,0.01217
63.7254,0.01349
63.7304,0.0121
63.7354,0.01169
63.7404,0.01291
63.7454,0.01289
63.7504,0.01195
63.7554,0.01317
63.7604,0.01158
63.7654,0.01073
63.7704,0.01068
63.7754,0.01355
63.7804,0.0118
63.7854,0.01126
63.7904,0.0129
63.7954,0.01594
63.8004,0.01502
63.8054,0.01706
63.8104,0.01816
63.8154,0.01736
63.8204,0.0155
63.8254,0.01613
63.8304,0.01586
63.8354,0.01396
63.8404,0.01146
63.8454,0.00976
63.8504,0.00844
63.8554,0.00766
63.8604,0.00803
63.8654,0.00885
63.8704,0.00877
63.8754,0.0073
63.8804,0.0066
63.8854,0.00643
63.8904,0.00741
63.8954,0.00855
63.9004,0.00959
63.9054,0.00929
63.9104,0.0082
63.9154,0.00877
63.9204,0.00913
63.9254,0.00782
63.9304,0.0067
63.9354,0.00806
63.9404,0.0087
63.9454,0.009
63.9504,0.01007
63.9554,0.01032
63.9604,0.00825
63.9654,0.00759
63.9704,0.00938
63.9754,0.01149
63.9804,0.01079
63.9854,0.01017
63.9904,0.00982
63.9954,0.01018
64.0004,0.01126
64.0054,0.01113
64.0104,0.0113
64.0154,0.01141
64.0204,0.00905
64.0254,0.00773
64.0304,0.00754
64.0354,0.00786
64.0404,0.00766
64.0454,0.00658
64.0504,0.00755
64.0554,0.00846
64.0604,0.00676
64.0654,0.00666
64.0704,0.00614
64.0754,0.00472
64.0804,0.00188
64.0854,8.75E-04
64.0904,0.002
64.0954,0.00293
64.1004,0.00268
64.1054,6.62E-04
64.1104,9.65E-05
64.1154,9.73E-04
64.1204,0.00167
64.1254,0.00364
64.1304,0.00365
64.1354,0.00319
64.1404,0.00222
64.1454,0.00162
64.1504,0.00453
64.1554,0.00693
64.1604,0.007
64.1654,0.0072
64.1704,0.00823
64.1754,0.00726
64.1804,0.00636
64.1854,0.00742
64.1904,0.00664
64.1954,0.0063
64.2004,0.00676
64.2054,0.00861
64.2104,0.00787
64.2154,0.00665
64.2204,0.00689
64.2254,0.00746
64.2304,0.00621
64.2354,0.00665
64.2404,0.00556
64.2454,0.00525
64.2504,0.00349
64.2554,0.00363
64.2604,0.0012
64.2654,0.00167
64.2704,0
64.2754,6.98E-04
64.2804,0.00283
64.2854,0.00465
64.2904,0.00369
64.2954,0.00393
64.3004,0.00458
64.3054,0.00644
64.3104,0.0064
64.3154,0.00685
64.3204,0.00732
64.3254,0.00549
64.3304,0.00444
64.3354,0.00482
64.3404,0.00542
64.3454,0.00675
64.3504,0.0073
64.3554,0.00751
64.3604,0.0069
64.3654,0.00535
64.3704,0.00657
64.3754,0.00661
64.3804,0.00564
64.3854,0.00631
64.3904,0.00623
64.3954,0.00749
64.4004,0.00857
64.4054,0.00969
64.4104,0.00995
64.4154,0.00894
64.4204,0.00969
64.4254,0.00837
64.4304,0.00665
64.4354,0.00591
64.4404,0.00477
64.4454,0.00403
64.4504,0.00493
64.4554,0.00452
64.4604,0.00411
64.4654,0.00196
64.4704,0.00361
64.4754,0.00529
64.4804,0.0048
64.4854,0.00421
64.4904,0.00375
64.4954,0.00375
64.5004,0.00444
64.5054,0.0039
64.5104,0.0046
64.5154,0.00326
64.5204,0.00262
64.5254,0.00226
64.5304,0.00131
64.5354,0.00162
64.5404,0.0013
64.5454,5.60E-05
64.5504,0
64.5554,0.00211
64.5604,0.00342
64.5654,0.00347
64.5704,0.0037
64.5754,0.00436
64.5804,0.0036
64.5854,0.00353
64.5904,0.00499
64.5954,0.00607
64.6004,0.00476
64.6054,0.00296
64.6104,0.00219
64.6154,0.00382
64.6204,0.00602
64.6254,0.00543
64.6304,0.005
64.6354,0.00495
64.6404,0.00494
64.6454,0.00606
64.6504,0.00772
64.6554,0.0069
64.6604,0.00283
64.6654,0.00132
64.6704,0.00443
64.6754,0.00439
64.6804,0.00488
64.6854,0.00503
64.6904,0.00486
64.6954,0.00601
64.7004,0.00858
64.7054,0.01155
64.7104,0.01209
64.7154,0.01118
64.7204,0.01276
64.7254,0.01191
64.7304,0.01082
64.7354,0.00946
64.7404,0.00942
64.7454,0.00902
64.7504,0.00966
64.7554,0.01026
64.7604,0.00889
64.7654,0.00902
64.7704,0.00944
64.7754,0.01087
64.7804,0.01212
64.7854,0.01275
64.7904,0.012
64.7954,0.01101
64.8004,0.00921
64.8054,0.01052
64.8104,0.00866
64.8154,0.0092
64.8204,0.01045
64.8254,0.00993
64.8304,0.00851
64.8354,0.00845
64.8404,0.0093
64.8454,0.00875
64.8504,0.00904
64.8554,0.01031
64.8604,0.00842
64.8654,0.00627
64.8704,0.00574
64.8754,0.0057
64.8804,0.00533
64.8854,0.00505
64.8904,0.0058
64.8954,0.00533
64.9004,0.00556
64.9054,0.00671
64.9104,0.00613
64.9154,0.00628
64.9204,0.00787
64.9254,0.00905
64.9304,0.0084
64.9354,0.00833
64.9404,0.0077
64.9454,0.007
64.9504,0.00834
64.9554,0.0101
64.9604,0.00976
64.9654,0.00677
64.9704,0.0061
64.9754,0.00633
64.9804,0.00628
64.9854,0.00648
64.9904,0.00819
64.9954,0.00951
65.0004,0.01001
65.0054,0.01288
65.0104,0.01567
65.0154,0.01782
65.0204,0.0206
65.0254,0.02304
65.0304,0.02449
65.0354,0.02448
65.0404,0.02526
65.0454,0.02727
65.0504,0.02864
65.0554,0.03287
65.0604,0.03394
65.0654,0.03451
65.0704,0.03892
65.0754,0.04387
65.0804,0.04711
65.0854,0.05042
65.0904,0.05435
65.0954,0.06035
65.1004,0.06505
65.1054,0.07108
65.1104,0.07752
65.1154,0.0828
65.1204,0.09075
65.1254,0.1005
65.1304,0.1115
65.1354,0.1217
65.1404,0.1309
65.1454,0.13977
65.1504,0.15
65.1554,0.16016
65.1604,0.16767
65.1654,0.17425
65.1704,0.18302
65.1754,0.1908
65.1804,0.19904
65.1854,0.20331
65.1904,0.20769
65.1954,0.20964
65.2004,0.20867
65.2054,0.21026
65.2104,0.20656
65.2154,0.20087
65.2204,0.19518
65.2254,0.18677
65.2304,0.18143
65.2354,0.1762
65.2404,0.16947
65.2454,0.16413
65.2504,0.1558
65.2554,0.15152
65.2604,0.14465
65.2654,0.13415
65.2704,0.12621
65.2754,0.11788
65.2804,0.10544
65.2854,0.09632
65.2904,0.08881
65.2954,0.08332
65.3004,0.07627
65.3054,0.06932
65.3104,0.06444
65.3154,0.05874
65.3204,0.05115
65.3254,0.04668
65.3304,0.04309
65.3354,0.03875
65.3404,0.03457
65.3454,0.03049
65.3504,0.02667
65.3554,0.02356
65.3604,0.02022
65.3654,0.02013
65.3704,0.02072
65.3754,0.01876
65.3804,0.01742
65.3854,0.01563
65.3904,0.01445
65.3954,0.01457
65.4004,0.01385
65.4054,0.01378
65.4104,0.01155
65.4154,0.01099
65.4204,0.01159
65.4254,0.01096
65.4304,0.0097
65.4354,0.00982
65.4404,0.00882
65.4454,0.01008
65.4504,0.01125
65.4554,0.00937
65.4604,0.00616
65.4654,0.00392
65.4704,0.00402
65.4754,0.00472
65.4804,0.00398
65.4854,0.00694
65.4904,0.00637
65.4954,0.00515
65.5004,0.00735
65.5054,0.0092
65.5104,0.00969
65.5154,0.01007
65.5204,0.01079
65.5254,0.01042
65.5304,0.00691
65.5354,0.00629
65.5404,0.00774
65.5454,0.00811
65.5504,0.00757
65.5554,0.00886
65.5604,0.00767
65.5654,0.00616
65.5704,0.00589
65.5754,0.00721
65.5804,0.00652
65.5854,0.00656
65.5904,0.00811
65.5954,0.00924
65.6004,0.01071
65.6054,0.01102
65.6104,0.01137
65.6154,0.01265
65.6204,0.01243
65.6254,0.01213
65.6304,0.01025
65.6354,0.0084
65.6404,0.00649
65.6454,0.00492
65.6504,0.00574
65.6554,0.00792
65.6604,0.00763
65.6654,0.00595
65.6704,0.0063
65.6754,0.0065
65.6804,0.00584
65.6854,0.00762
65.6904,0.00914
65.6954,0.00915
65.7004,0.00793
65.7054,0.00773
65.7104,0.01036
65.7154,0.01111
65.7204,0.01121
65.7254,0.01133
65.7304,0.01071
65.7354,0.00905
65.7404,0.00744
65.7454,0.00747
65.7504,0.00781
65.7554,0.00689
65.7604,0.00595
65.7654,0.00477
65.7704,0.00563
65.7754,0.00549
65.7804,0.00647
65.7854,0.00815
65.7904,0.00653
65.7954,0.00446
65.8004,0.00255
65.8054,0.00257
65.8104,0.00379
65.8154,0.00603
65.8204,0.00776
65.8254,0.007
65.8304,0.00566
65.8354,0.00574
65.8404,0.00645
65.8454,0.00845
65.8504,0.00986
65.8554,0.00983
65.8604,0.00652
65.8654,0.00515
65.8704,0.00528
65.8754,0.0062
65.8804,0.00573
65.8854,0.00616
65.8904,0.00522
65.8954,0.00357
65.9004,0.00265
65.9054,8.76E-04
65.9104,0
65.9154,1.17E-04
65.9204,3.59E-05
65.9254,7.46E-04
65.9304,0.00105
65.9354,0.00219
65.9404,0.00343
65.9454,0.00359
65.9504,0.00622
65.9554,0.00785
65.9604,0.00673
65.9654,0.00462
65.9704,0.0052
65.9754,0.00631
65.9804,0.00523
65.9854,0.00494
65.9904,0.00564
65.9954,0.00651
66.0004,0.00766
66.0054,0.00821
66.0104,0.01014
66.0154,0.00921
66.0204,0.00795
66.0254,0.00891
66.0304,0.00857
66.0354,0.00909
66.0404,0.00889
66.0454,0.00757
66.0504,0.00798
66.0554,0.01055
66.0604,0.01221
66.0654,0.01189
66.0704,0.01294
66.0754,0.01435
66.0804,0.01399
66.0854,0.01344
66.0904,0.01324
66.0954,0.01278
66.1004,0.0104
66.1054,0.00811
66.1104,0.00807
66.1154,0.0066
66.1204,0.00568
66.1254,0.00646
66.1304,0.00543
66.1354,0.00453
66.1404,0.00518
66.1454,0.006
66.1504,0.00901
66.1554,0.01037
66.1604,0.01001
66.1654,0.00788
66.1704,0.0073
66.1754,0.00876
66.1804,0.00882
66.1854,0.00866
66.1904,0.00847
66.1954,0.00682
66.2004,0.00731
66.2054,0.00755
66.2104,0.00898
66.2154,0.00873
66.2204,0.0101
66.2254,0.01051
66.2304,0.0097
66.2354,0.01046
66.2404,0.01011
66.2454,0.00878
66.2504,0.00815
66.2554,0.00945
66.2604,0.00903
66.2654,0.00652
66.2704,0.00636
66.2754,0.00641
66.2804,0.00486
66.2854,0.0061
66.2904,0.00611
66.2954,0.00606
66.3004,0.00512
66.3054,0.0046
66.3104,0.00318
66.3154,0.00305
66.3204,0.0019
66.3254,0.00125
66.3304,0
66.3354,2.90E-04
66.3404,0.00185
66.3454,0.00308
66.3504,0.00405
66.3554,0.00655
66.3604,0.0073
66.3654,0.00911
66.3704,0.0111
66.3754,0.01027
66.3804,0.00918
66.3854,0.01033
66.3904,0.00958
66.3954,0.01105
66.4004,0.00955
66.4054,0.00747
66.4104,0.00725
66.4154,0.00679
66.4204,0.00811
66.4254,0.00714
66.4304,0.00406
66.4354,0.00484
66.4404,0.00309
66.4454,0.00476
66.4504,0.00778
66.4554,0.00814
66.4604,0.00659
66.4654,0.00539
66.4704,0.00705
66.4754,0.00778
66.4804,0.00678
66.4854,0.00726
66.4904,0.00553
66.4954,0.0043
66.5004,0.00261
66.5054,0.00367
66.5104,0.00456
66.5154,0.00435
66.5204,0.00578
66.5254,0.00605
66.5304,0.00653
66.5354,0.00859
66.5404,0.00975
66.5454,0.01076
66.5504,0.01068
66.5554,0.0112
66.5604,0.0108
66.5654,0.00895
66.5704,0.00805
66.5754,0.00731
66.5804,0.00579
66.5854,0.00529
66.5904,0.00508
66.5954,0.00557
66.6004,0.00592
66.6054,0.00486
66.6104,0.00405
66.6154,0.00312
66.6204,0.00327
66.6254,0.00392
66.6304,0.00372
66.6354,0.00245
66.6404,0.00169
66.6454,0.00128
66.6504,0.00269
66.6554,0.00225
66.6604,0.00214
66.6654,0.00107
66.6704,0.00138
66.6754,0.00203
66.6804,0.00451
66.6854,0.00634
66.6904,0.00539
66.6954,0.00554
66.7004,0.00813
66.7054,0.00978
66.7104,0.00916
66.7154,0.0083
66.7204,0.0069
66.7254,0.00658
66.7304,0.00556
66.7354,0.00705
66.7404,0.00827
66.7454,0.00832
66.7504,0.00933
66.7554,0.01165
66.7604,0.01203
66.7654,0.01088
66.7704,0.00926
66.7754,0.0068
66.7804,0.00397
66.7854,0.0026
66.7904,0.00215
66.7954,0.00181
66.8004,0.00224
66.8054,0.00222
66.8104,0.00375
66.8154,0.00391
66.8204,0.00523
66.8254,0.00621
66.8304,0.00506
66.8354,0.00477
66.8404,0.00391
66.8454,0.00261
66.8504,0.00299
66.8554,0.0024
66.8604,0.00402
66.8654,0.00347
66.8704,0.00618
66.8754,0.00773
66.8804,0.00824
66.8854,0.00766
66.8904,0.00792
66.8954,0.00776
66.9004,0.00879
66.9054,0.00646
66.9104,0.007
66.9154,0.00564
66.9204,0.00608
66.9254,0.00499
66.9304,0.00482
66.9354,0.00529
66.9404,0.0052
66.9454,0.00586
66.9504,0.00857
66.9554,0.00961
66.9604,0.01014
66.9654,0.00727
66.9704,0.00807
66.9754,0.00773
66.9804,0.00526
66.9854,0.00544
66.9904,0.00276
66.9954,0.00232
67.0004,0.00344
67.0054,0.00262
67.0104,0.00472
67.0154,0.00416
67.0204,0.00379
67.0254,0.00472
67.0304,0.0037
67.0354,0.00697
67.0404,0.00706
67.0454,0.00401
67.0504,0.00519
67.0554,0.0053
67.0604,0.00479
67.0654,0.00615
67.0704,0.00833
67.0754,0.00945
67.0804,0.00759
67.0854,0.00656
67.0904,0.00744
67.0954,0.00673
67.1004,0.00698
67.1054,0.00801
67.1104,0.00584
67.1154,0.00381
67.1204,0.00382
67.1254,0.00365
67.1304,0.00315
67.1354,0.00475
67.1404,0.0061
67.1454,0.00597
67.1504,0.007
67.1554,0.00803
67.1604,0.00764
67.1654,0.00682
67.1704,0.00628
67.1754,0.00745
67.1804,0.0056
67.1854,0.00424
67.1904,0.00311
67.1954,0.00161
67.2004,0.00319
67.2054,0.00323
67.2104,0.00334
67.2154,0.00453
67.2204,0.00272
67.2254,0.00337
67.2304,0.00301
67.2354,0.00406
67.2404,0.0037
67.2454,0.00359
67.2504,0.00556
67.2554,0.00609
67.2604,0.00636
67.2654,0.00719
67.2704,0.00803
67.2754,0.00865
67.2804,0.00653
67.2854,0.00722
67.2904,0.00623
67.2954,0.0046
67.3004,0.0037
67.3054,0.00446
67.3104,0.00417
67.3154,0.00221
67.3204,0
67.3254,0.00119
67.3304,8.23E-04
67.3354,0.00216
67.3404,0.00241
67.3454,0.00354
67.3504,0.003
67.3554,0.00485
67.3604,0.00611
67.3654,0.00703
67.3704,0.00775
67.3754,0.00901
67.3804,0.00845
67.3854,0.00974
67.3904,0.00685
67.3954,0.00519
67.4004,0.00471
67.4054,0.0052
67.4104,0.00549
67.4154,0.00683
67.4204,0.00716
67.4254,0.00608
67.4304,0.00442
67.4354,0.00629
67.4404,0.00756
67.4454,0.00747
67.4504,0.00631
67.4554,0.00709
67.4604,0.00536
67.4654,0.00289
67.4704,0.00401
67.4754,0.00411
67.4804,0.0023
67.4854,0.00235
67.4904,0.00202
67.4954,0.00359
67.5004,0.00365
67.5054,0.00496
67.5104,0.00586
67.5154,0.00496
67.5204,0.00521
67.5254,0.00634
67.5304,0.00521
67.5354,0.00504
67.5404,0.00518
67.5454,0.00558
67.5504,0.00416
67.5554,0.00503
67.5604,0.00391
67.5654,0.00197
67.5704,0.0019
67.5754,0.00211
67.5804,0.0012
67.5854,6.73E-04
67.5904,0
67.5954,0.00108
67.6004,0.00142
67.6054,0.00192
67.6104,0.00434
67.6154,0.00542
67.6204,0.00633
67.6254,0.00755
67.6304,0.0074
67.6354,0.00823
67.6404,0.00658
67.6454,0.00502
67.6504,0.00733
67.6554,0.00662
67.6604,0.00545
67.6654,0.00381
67.6704,0.00374
67.6754,0.00347
67.6804,0.00394
67.6854,0.00609
67.6904,0.00768
67.6954,0.00783
67.7004,0.00977
67.7054,0.01038
67.7104,0.00848
67.7154,0.00743
67.7204,0.00791
67.7254,0.00721
67.7304,0.00585
67.7354,0.0046
67.7404,0.00384
67.7454,0.00364
67.7504,0.00545
67.7554,0.00906
67.7604,0.01021
67.7654,0.00774
67.7704,0.00699
67.7754,0.00651
67.7804,0.00641
67.7854,0.00665
67.7904,0.00661
67.7954,0.00565
67.8004,0.00636
67.8054,0.00717
67.8104,0.00855
67.8154,0.0086
67.8204,0.00986
67.8254,0.01053
67.8304,0.00942
67.8354,0.00721
67.8404,0.0056
67.8454,0.00395
67.8504,0.00281
67.8554,0.00348
67.8604,0.00114
67.8654,0.00102
67.8704,0.00173
67.8754,0.00154
67.8804,0.00355
67.8854,0.00686
67.8904,0.00851
67.8954,0.00915
67.9004,0.00872
67.9054,0.00991
67.9104,0.00867
67.9154,0.00725
67.9204,0.00724
67.9254,0.00652
67.9304,0.00477
67.9354,0.00368
67.9404,0.00331
67.9454,0.00373
67.9504,0.00428
67.9554,0.00538
67.9604,0.0032
67.9654,0.00287
67.9704,0.00299
67.9754,0.00261
67.9804,0.00241
67.9854,0.00247
67.9904,0.00408
67.9954,0.00459
68.0004,0.00443
68.0054,0.00912
68.0104,0.01002
68.0154,0.0109
68.0204,0.01138
68.0254,0.01
68.0304,0.0098
68.0354,0.00815
68.0404,0.00823
68.0454,0.00733
68.0504,0.00673
68.0554,0.00789
68.0604,0.00705
68.0654,0.00643
68.0704,0.00827
68.0754,0.00938
68.0804,0.01007
68.0854,0.01078
68.0904,0.01184
68.0954,0.00975
68.1004,0.01045
68.1054,0.0105
68.1104,0.01148
68.1154,0.01128
68.1204,0.0096
68.1254,0.00778
68.1304,0.00682
68.1354,0.00636
68.1404,0.00757
68.1454,0.00453
68.1504,0.00445
68.1554,0.00396
68.1604,0.00382
68.1654,0.00433
68.1704,0.00539
68.1754,0.0042
68.1804,0.00448
68.1854,0.00521
68.1904,0.00865
68.1954,0.00863
68.2004,0.01048
68.2054,0.00971
68.2104,0.00848
68.2154,0.00894
68.2204,0.01203
68.2254,0.01436
68.2304,0.01279
68.2354,0.009
68.2404,0.00869
68.2454,0.00646
68.2504,0.00675
68.2554,0.00839
68.2604,0.00767
68.2654,0.0042
68.2704,9.38E-04
68.2754,0.00203
68.2804,0.00483
68.2854,0.0062
68.2904,0.00667
68.2954,0.00744
68.3004,0.00858
68.3054,0.00906
68.3104,0.01073
68.3154,0.00956
68.3204,0.00905
68.3254,0.00914
68.3304,0.00923
68.3354,0.00957
68.3404,0.00933
68.3454,0.00649
68.3504,0.00597
68.3554,0.00517
68.3604,0.00452
68.3654,0.0049
68.3704,0.00556
68.3754,0.00398
68.3804,0.00351
68.3854,0.00305
68.3904,0.00588
68.3954,0.00704
68.4004,0.00767
68.4054,0.01178
68.4104,0.01304
68.4154,0.01295
68.4204,0.01313
68.4254,0.01138
68.4304,0.01159
68.4354,0.0082
68.4404,0.00615
68.4454,0.00586
68.4504,0.00429
68.4554,0.00458
68.4604,0.00119
68.4654,0.00133
68.4704,0.00344
68.4754,0.00289
68.4804,0.00545
68.4854,0.00719
68.4904,0.00898
68.4954,0.00977
68.5004,0.00889
68.5054,0.01093
68.5104,0.00995
68.5154,0.00852
68.5204,0.00911
68.5254,0.00781
68.5304,0.00746
68.5354,0.00557
68.5404,0.00419
68.5454,0.00279
68.5504,3.26E-04
68.5554,1.32E-04
68.5604,0
68.5654,1.59E-04
68.5704,0.00296
68.5754,0.00391
68.5804,0.00602
68.5854,0.00722
68.5904,0.00767
68.5954,0.00957
68.6004,0.0126
68.6054,0.01332
68.6104,0.01256
68.6154,0.01035
68.6204,0.01077
68.6254,0.00905
68.6304,0.00895
68.6354,0.00621
68.6404,0.00504
68.6454,0.00354
68.6504,0.00408
68.6554,0.00791
68.6604,0.00854
68.6654,0.00514
68.6704,0.00451
68.6754,0.00502
68.6804,0.00837
68.6854,0.00965
68.6904,0.00863
68.6954,0.00764
68.7004,0.00453
68.7054,0.00487
68.7104,0.00677
68.7154,0.00685
68.7204,0.00514
68.7254,0.00469
68.7304,0.00456
68.7354,0.00497
68.7404,0.00431
68.7454,0.00394
68.7504,0.00388
68.7554,0.00334
68.7604,0.0029
68.7654,8.10E-05
68.7704,0
68.7754,7.00E-04
68.7804,0.00117
68.7854,0.0046
68.7904,0.00583
68.7954,0.00522
68.8004,0.00667
68.8054,0.00721
68.8104,0.01078
68.8154,0.01106
68.8204,0.01131
68.8254,0.01193
68.8304,0.0108
68.8354,0.00943
68.8404,0.0101
68.8454,0.00998
68.8504,0.01136
68.8554,0.0127
68.8604,0.01329
68.8654,0.01249
68.8704,0.01243
68.8754,0.0119
68.8804,0.01395
68.8854,0.01477
68.8904,0.01277
68.8954,0.01187
68.9004,0.01201
68.9054,0.01138
68.9104,0.00985
68.9154,0.00956
68.9204,0.00999
68.9254,0.00947
68.9304,0.00831
68.9354,0.01066
68.9404,0.01117
68.9454,0.00941
68.9504,0.0082
68.9554,0.01012
68.9604,0.01011
68.9654,0.00752
68.9704,0.00495
68.9754,0.00347
68.9804,8.82E-04
68.9854,0.00185
68.9904,0.00377
68.9954,0.00596
69.0004,0.00711
69.0054,0.00714
69.0104,0.00973
69.0154,0.01211
69.0204,0.01473
69.0254,0.01547
69.0304,0.01286
69.0354,0.01209
69.0404,0.01152
69.0454,0.01054
69.0504,0.00935
69.0554,0.00942
69.0604,0.00936
69.0654,0.00694
69.0704,0.00478
69.0754,0.00521
69.0804,0.00504
69.0854,0.00517
69.0904,0.00335
69.0954,0.00447
69.1004,0.00421
69.1054,0.00333
69.1104,0.00448
69.1154,0.00711
69.1204,0.00737
69.1254,0.0082
69.1304,0.00793
69.1354,0.00876
69.1404,0.00827
69.1454,0.00813
69.1504,0.00957
69.1554,0.00948
69.1604,0.008
69.1654,0.00758
69.1704,0.00736
69.1754,0.00736
69.1804,0.00696
69.1854,0.00723
69.1904,0.00527
69.1954,0.00381
69.2004,0.00523
69.2054,0.00698
69.2104,0.00632
69.2154,0.00372
69.2204,0.00303
69.2254,0.00265
69.2304,7.38E-04
69.2354,0.00236
69.2404,0.00211
69.2454,3.84E-05
69.2504,0
69.2554,0.00166
69.2604,4.18E-04
69.2654,8.21E-04
69.2704,0.00233
69.2754,0.00347
69.2804,0.00476
69.2854,0.00618
69.2904,0.00691
69.2954,0.00691
69.3004,0.00834
69.3054,0.01079
69.3104,0.01016
69.3154,0.00976
69.3204,0.00971
69.3254,0.00729
69.3304,0.00642
69.3354,0.00533
69.3404,0.00334
69.3454,0.00208
69.3504,0.00179
69.3554,0.00313
69.3604,0.00225
69.3654,9.94E-04
69.3704,0.00187
69.3754,0.00187
69.3804,0.00241
69.3854,0.00594
69.3904,0.00588
69.3954,0.00435
69.4004,0.00338
69.4054,0.00303
69.4104,0.00448
69.4154,0.00566
69.4204,0.00611
69.4254,0.00753
69.4304,0.00667
69.4354,0.0078
69.4404,0.00865
69.4454,0.00837
69.4504,0.0104
69.4554,0.01131
69.4604,0.00927
69.4654,0.00706
69.4704,0.00635
69.4754,0.00597
69.4804,0.00493
69.4854,0.00751
69.4904,0.00779
69.4954,0.00614
69.5004,0.00622
69.5054,0.00798
69.5104,0.00974
69.5154,0.00873
69.5204,0.00772
69.5254,0.00544
69.5304,0.00274
69.5354,0.00187
69.5404,0.00144
69.5454,0
69.5504,3.76E-04
69.5554,2.16E-04
69.5604,0.00102
69.5654,3.67E-04
69.5704,0.00135
69.5754,0.00245
69.5804,0.00413
69.5854,0.00582
69.5904,0.00635
69.5954,0.0055
69.6004,0.00429
69.6054,0.00417
69.6104,0.00661
69.6154,0.00712
69.6204,0.00771
69.6254,0.00741
69.6304,0.00538
69.6354,0.00588
69.6404,0.00539
69.6454,0.0073
69.6504,0.00775
69.6554,0.00519
69.6604,0.00279
69.6654,0.00333
69.6704,0.00228
69.6754,0.00404
69.6804,0.00421
69.6854,0.00374
69.6904,0.00166
69.6954,0.00124
69.7004,0.00424
69.7054,0.00733
69.7104,0.00501
69.7154,0.00344
69.7204,0.00166
69.7254,0.00315
69.7304,0.00271
69.7354,0.00277
69.7404,7.62E-04
69.7454,3.82E-04
69.7504,0.00306
69.7554,0.00313
69.7604,0.00523
69.7654,0.00749
69.7704,0.00619
69.7754,0.00874
69.7804,0.00976
69.7854,0.01316
69.7904,0.01481
69.7954,0.01241
69.8004,0.01373
69.8054,0.01502
69.8104,0.01343
69.8154,0.01295
69.8204,0.0119
69.8254,0.01222
69.8304,0.00969
69.8354,0.00597
69.8404,0.00614
69.8454,0.00771
69.8504,0.00681
69.8554,0.00797
69.8604,0.00838
69.8654,0.00848
69.8704,0.00838
69.8754,0.00762
69.8804,0.00683
69.8854,0.00517
69.8904,0.0032
69.8954,0.0011
69.9004,4.26E-04
69.9054,1.47E-04
69.9104,0
69.9154,3.48E-04
69.9204,0.00286
69.9254,0.00301
69.9304,0.00387
69.9354,0.00343
69.9404,0.00396
69.9454,0.00407
69.9504,0.00491
69.9554,0.00569
69.9604,0.00607
69.9654,0.00629
69.9704,0.00874
69.9754,0.00847
69.9804,0.00838
69.9854,0.00904
69.9904,0.00737
69.9954,0.00799
70.0004,0.00645
70.0054,0.00552
70.0104,0.0062
70.0154,0.00538
70.0204,0.00653
70.0254,0.00688
70.0304,0.00453
70.0354,0.00589
70.0404,0.00488
70.0454,0.00585
70.0504,0.00758
70.0554,0.00567
70.0604,0.00561
70.0654,0.00634
70.0704,0.00725
70.0754,0.01065
70.0804,0.01052
70.0854,0.00991
70.0904,0.00879
70.0954,0.00495
70.1004,0.00549
70.1054,0.00756
70.1104,0.00796
70.1154,0.00924
70.1204,0.00728
70.1254,0.00642
70.1304,0.00707
70.1354,0.00899
70.1404,0.01294
70.1454,0.0123
70.1504,0.00778
70.1554,0.00662
70.1604,0.00769
70.1654,0.01061
70.1704,0.01442
70.1754,0.0157
70.1804,0.01487
70.1854,0.01387
70.1904,0.0159
70.1954,0.02005
70.2004,0.02155
70.2054,0.01896
70.2104,0.01767
70.2154,0.01676
70.2204,0.01426
70.2254,0.01306
70.2304,0.01182
70.2354,0.0112
70.2404,0.01233
70.2454,0.01126
70.2504,0.01167
70.2554,0.01182
70.2604,0.00981
70.2654,0.0112
70.2704,0.0141
70.2754,0.01404
70.2804,0.01308
70.2854,0.01056
70.2904,0.00839
70.2954,0.00826
70.3004,0.00773
70.3054,0.00791
70.3104,0.0071
70.3154,0.00601
70.3204,0.00486
70.3254,0.00349
70.3304,0.00392
70.3354,0.00524
70.3404,0.00545
70.3454,0.00546
70.3504,0.00353
70.3554,0.00314
70.3604,0.00287
70.3654,0.00476
70.3704,0.00666
70.3754,0.00475
70.3804,0.00417
70.3854,0.00441
70.3904,0.00241
70.3954,0.00389
70.4004,0.00319
70.4054,0
70.4104,7.55E-04
70.4154,0.00324
70.4204,0.00587
70.4254,0.00816
70.4304,0.01208
70.4354,0.01723
70.4404,0.01785
70.4454,0.02005
70.4504,0.02412
70.4554,0.02349
70.4604,0.02003
70.4654,0.01975
70.4704,0.01928
70.4754,0.01418
70.4804,0.01091
70.4854,0.01195
70.4904,0.01159
70.4954,0.0096
70.5004,0.00944
70.5054,0.00979
70.5104,0.0094
70.5154,0.0085
70.5204,0.01128
70.5254,0.01315
70.5304,0.01479
70.5354,0.01548
70.5404,0.01548
70.5454,0.01731
70.5504,0.01712
70.5554,0.01473
70.5604,0.01569
70.5654,0.0157
70.5704,0.01748
70.5754,0.01389
70.5804,0.01536
70.5854,0.01937
70.5904,0.02077
70.5954,0.02151
70.6004,0.02386
70.6054,0.02555
70.6104,0.0259
70.6154,0.0244
70.6204,0.02743
70.6254,0.02667
70.6304,0.02495
70.6354,0.02217
70.6404,0.02481
70.6454,0.02461
70.6504,0.02464
70.6554,0.02437
70.6604,0.02253
70.6654,0.02417
70.6704,0.02445
70.6754,0.02272
70.6804,0.02332
70.6854,0.02054
70.6904,0.02274
70.6954,0.02375
70.7004,0.02619
70.7054,0.02991
70.7104,0.03256
70.7154,0.033
70.7204,0.03498
70.7254,0.03566
70.7304,0.0339
70.7354,0.0348
70.7404,0.03268
70.7454,0.0292
70.7504,0.02597
70.7554,0.02085
70.7604,0.01955
70.7654,0.02214
70.7704,0.02535
70.7754,0.02877
70.7804,0.02927
70.7854,0.03027
70.7904,0.02831
70.7954,0.02612
70.8004,0.02566
70.8054,0.02352
70.8104,0.01997
70.8154,0.0138
70.8204,0.01313
70.8254,0.01383
70.8304,0.01239
70.8354,0.01646
70.8404,0.02035
70.8454,0.01896
70.8504,0.0199
70.8554,0.01923
70.8604,0.01889
70.8654,0.01496
70.8704,0.01148
70.8754,0.01254
70.8804,0.00864
70.8854,0.0064
70.8904,0.00752
70.8954,0.00746
70.9004,0.01007
70.9054,0.01254
70.9104,0.01343
70.9154,0.01448
70.9204,0.01131
70.9254,0.01285
70.9304,0.01329
70.9354,0.01602
70.9404,0.01644
70.9454,0.0127
70.9504,0.0128
70.9554,0.01595
70.9604,0.01369
70.9654,0.01547
70.9704,0.01413
70.9754,0.01325
70.9804,0.01071
70.9854,0.00946
70.9904,0.00932
70.9954,0.00615
71.0004,0.00335
71.0054,0.0019
71.0104,0
71.0154,0.00262
71.0204,0.00284
71.0254,0.00302
71.0304,0.00355
71.0354,0.00512
71.0404,0.01171
71.0454,0.01581
71.0504,0.01863
71.0554,0.01901
71.0604,0.01568
71.0654,0.01856
71.0704,0.02049
71.0754,0.02254
71.0804,0.02274
71.0854,0.01894
71.0904,0.01478
71.0954,0.01537
71.1004,0.01647
71.1054,0.0184
71.1104,0.01303
71.1154,0.00881
71.1204,0.0072
71.1254,0.00751
71.1304,0.00961
71.1354,0.00962
71.1404,0.00619
71.1454,0.00786
71.1504,0.00673
71.1554,0.00624
71.1604,0.00678
71.1654,0.00698
71.1704,0.00617
71.1754,0.00528
71.1804,0.008
71.1854,0.01089
71.1904,0.01016
71.1954,0.012
71.2004,0.01581
71.2054,0.02019
71.2104,0.02232
71.2154,0.02204
71.2204,0.01874
71.2254,0.01646
71.2304,0.01421
71.2354,0.01515
71.2404,0.01351
71.2454,0.01327
71.2504,0.01104
71.2554,0.00884
71.2604,0.00764
71.2654,0.01077
71.2704,0.01429
71.2754,0.01856
71.2804,0.0213
71.2854,0.02524
71.2904,0.02533
71.2954,0.02506
71.3004,0.02599
71.3054,0.02679
71.3104,0.02453
71.3154,0.02264
71.3204,0.01854
71.3254,0.01485
71.3304,0.01375
71.3354,0.0143
71.3404,0.0142
71.3454,0.01337
71.3504,0.01289
71.3554,0.01347
71.3604,0.01502
71.3654,0.02074
71.3704,0.02377
71.3754,0.02192
71.3804,0.02481
71.3854,0.02523
71.3904,0.02756
71.3954,0.02983
71.4004,0.03559
71.4054,0.03864
71.4104,0.03226
71.4154,0.0271
71.4204,0.02777
71.4254,0.02769
71.4304,0.02712
71.4354,0.02318
71.4404,0.02315
71.4454,0.01894
71.4504,0.01805
71.4554,0.02324
71.4604,0.02501
71.4654,0.02353
71.4704,0.0227
71.4754,0.02571
71.4804,0.02523
71.4854,0.02486
71.4904,0.02699
71.4954,0.02348
71.5004,0.02195
71.5054,0.02463
71.5104,0.02518
71.5154,0.02304
71.5204,0.01977
71.5254,0.02592
71.5304,0.02658
71.5354,0.02634
71.5404,0.02943
71.5454,0.03216
71.5504,0.02988
71.5554,0.02674
71.5604,0.02782
71.5654,0.03512
71.5704,0.0333
71.5754,0.03136
71.5804,0.03009
71.5854,0.02859
71.5904,0.02323
71.5954,0.02235
71.6004,0.0248
71.6054,0.02767
71.6104,0.02112
71.6154,0.02027
71.6204,0.02375
71.6254,0.02601
71.6304,0.0283
71.6354,0.03577
71.6404,0.0415
71.6454,0.04293
71.6504,0.04192
71.6554,0.04472
71.6604,0.04361
71.6654,0.03973
71.6704,0.03744
71.6754,0.03785
71.6804,0.03448
71.6854,0.02859
71.6904,0.02871
71.6954,0.02669
71.7004,0.02784
71.7054,0.03115
71.7104,0.03299
71.7154,0.02838
71.7204,0.02242
71.7254,0.02
71.7304,0.0221
71.7354,0.02607
71.7404,0.03176
71.7454,0.03489
71.7504,0.03404
71.7554,0.03589
71.7604,0.04328
71.7654,0.04465
71.7704,0.04904
71.7754,0.0517
71.7804,0.04989
71.7854,0.045
71.7904,0.04279
71.7954,0.04482
71.8004,0.04964
71.8054,0.05449
71.8104,0.06195
71.8154,0.05949
71.8204,0.05682
71.8254,0.05907
71.8304,0.06229
71.8354,0.067
71.8404,0.06714
71.8454,0.06646
71.8504,0.06254
71.8554,0.0571
71.8604,0.0611
71.8654,0.06365
71.8704,0.06647
71.8754,0.06557
71.8804,0.05997
71.8854,0.05608
71.8904,0.05617
71.8954,0.05494
71.9004,0.0574
71.9054,0.05954
71.9104,0.05617
71.9154,0.05327
71.9204,0.05446
71.9254,0.05547
71.9304,0.05944
71.9354,0.06162
71.9404,0.06612
71.9454,0.0703
71.9504,0.06694
71.9554,0.06997
71.9604,0.07283
71.9654,0.07228
71.9704,0.07478
71.9754,0.0741
71.9804,0.07214
71.9854,0.07298
71.9904,0.07095
71.9954,0.07348
72.0004,0.07489
72.0054,0.07239
72.0104,0.07278
72.0154,0.07296
72.0204,0.07636
72.0254,0.07738
72.0304,0.07297
72.0354,0.07106
72.0404,0.07371
72.0454,0.07222
72.0504,0.06732
72.0554,0.06399
72.0604,0.06398
72.0654,0.06574
72.0704,0.06441
72.0754,0.06152
72.0804,0.06219
72.0854,0.0659
72.0904,0.06512
72.0954,0.07499
72.1004,0.08903
72.1054,0.09431
72.1104,0.09961
72.1154,0.10615
72.1204,0.11224
72.1254,0.11666
72.1304,0.10875
72.1354,0.11175
72.1404,0.11146
72.1454,0.10836
72.1504,0.10662
72.1554,0.10137
72.1604,0.09277
72.1654,0.08258
72.1704,0.0849
72.1754,0.08892
72.1804,0.0869
72.1854,0.08426
72.1904,0.08667
72.1954,0.09101
72.2004,0.09029
72.2054,0.09821
72.2104,0.10823
72.2154,0.10139
72.2204,0.10727
72.2254,0.11669
72.2304,0.11451
72.2354,0.1125
72.2404,0.11006
72.2454,0.10583
72.2504,0.10464
72.2554,0.10875
72.2604,0.10283
72.2654,0.09122
72.2704,0.08353
72.2754,0.08412
72.2804,0.08056
72.2854,0
72.2904,0.05449
72.2954,0.03529
72.3004,0.04554
72.3054,0
